ax,ay,az,gx,gy,gz,timestamp
-0.3974374830722809,9.730035781860352,0.24181437492370605,0.008522115647792816,-0.00532632227987051,0.01065264455974102,1.901189
-0.3998316824436188,9.694122314453125,0.21547815203666687,0.01065264455974102,-0.007456851191818714,0.011717909015715122,1.90619
-0.3878606855869293,9.6989107131958,0.22266076505184174,0.007456851191818714,-0.007456851191818714,0.01065264455974102,1.911191
-0.38307225704193115,9.744400978088379,0.2059013396501541,0.006391586735844612,-0.008522115647792816,0.009587380103766918,1.916192
-0.38067805767059326,9.765948295593262,0.15801730751991272,0.00532632227987051,-0.00532632227987051,0.007456851191818714,1.921194
-0.38067805767059326,9.734824180603027,0.16998831927776337,0.002130528911948204,-0.004261057823896408,0.006391586735844612,1.926209
-0.3711012601852417,9.737217903137207,0.17477671802043915,-0.001065264455974102,-0.004261057823896408,0.004261057823896408,1.931206
-0.3711012601852417,9.694122314453125,0.16998831927776337,-0.003195793367922306,-0.003195793367922306,0.0,1.936201
-0.38546648621559143,9.694122314453125,0.1364694982767105,-0.006391586735844612,-0.006391586735844612,-0.002130528911948204,1.941198
-0.37828385829925537,9.667786598205566,0.13168109953403473,-0.007456851191818714,-0.008522115647792816,-0.004261057823896408,1.946199
-0.38307225704193115,9.68694019317627,0.15801730751991272,-0.008522115647792816,-0.008522115647792816,-0.006391586735844612,1.9512
-0.4213795065879822,9.720458984375,0.1364694982767105,-0.012783173471689224,-0.009587380103766918,-0.009587380103766918,1.956201
-0.4357447028160095,9.715670585632324,0.14844051003456116,-0.014913702383637428,-0.009587380103766918,-0.012783173471689224,1.961204
-0.4405331015586853,9.732429504394531,0.17717093229293823,-0.019174760207533836,-0.009587380103766918,-0.013848437927663326,1.966208
-0.47644615173339844,9.744400978088379,0.17956513166427612,-0.02130528911948204,-0.009587380103766918,-0.013848437927663326,1.971204
-0.4884171485900879,9.708487510681152,0.19871874153614044,-0.024501081556081772,-0.009587380103766918,-0.012783173471689224,1.976212
-0.5027823448181152,9.720458984375,0.24420857429504395,-0.02556634694337845,-0.01065264455974102,-0.011717909015715122,1.981212
-0.49799394607543945,9.775525093078613,0.24899697303771973,-0.02876213937997818,-0.012783173471689224,-0.01065264455974102,1.986209
-0.49799394607543945,9.78989028930664,0.2322375625371933,-0.02556634694337845,-0.014913702383637428,-0.009587380103766918,1.991211
-0.4812345504760742,9.77791976928711,0.2322375625371933,-0.024501081556081772,-0.013848437927663326,-0.007456851191818714,1.99621
-0.4644751250743866,9.804255485534668,0.23702596127986908,-0.02556634694337845,-0.014913702383637428,-0.00532632227987051,2.001216
-0.42377370595932007,9.825803756713867,0.26096799969673157,-0.02556634694337845,-0.013848437927663326,-0.004261057823896408,2.006213
-0.4381389021873474,9.852140426635742,0.2777273952960968,-0.023435818031430244,-0.013848437927663326,-0.00532632227987051,2.011224
-0.43095630407333374,9.86650562286377,0.31603461503982544,-0.01810949482023716,-0.013848437927663326,-0.006391586735844612,2.016218
-0.4141969084739685,9.864110946655273,0.3471592366695404,-0.017044231295585632,-0.009587380103766918,-0.007456851191818714,2.021217
-0.4165911078453064,9.859322547912598,0.3758896589279175,-0.014913702383637428,-0.009587380103766918,-0.01065264455974102,2.026217
-0.43335050344467163,9.861717224121094,0.363918662071228,-0.009587380103766918,-0.008522115647792816,-0.012783173471689224,2.031223
-0.43095630407333374,9.873687744140625,0.3734954595565796,-0.003195793367922306,-0.006391586735844612,-0.014913702383637428,2.036223
-0.4429273009300232,9.84256362915039,0.3926490843296051,0.0,-0.004261057823896408,-0.01810949482023716,2.041228
-0.47165772318840027,9.849745750427246,0.36152446269989014,0.002130528911948204,-0.003195793367922306,-0.019174760207533836,2.046228
-0.47165772318840027,9.849745750427246,0.2992752194404602,0.002130528911948204,-0.001065264455974102,-0.02130528911948204,2.051225
-0.4620809257030487,9.84256362915039,0.2849099934101105,0.006391586735844612,0.0,-0.02130528911948204,2.056224
-0.47644615173339844,9.813833236694336,0.26815059781074524,0.008522115647792816,0.001065264455974102,-0.02130528911948204,2.061225
-0.49320554733276367,9.768342971801758,0.22026655077934265,0.004261057823896408,0.001065264455974102,-0.020240023732185364,2.06623
-0.4668693244457245,9.77791976928711,0.20111294090747833,0.004261057823896408,0.0,-0.017044231295585632,2.071227
-0.4692635238170624,9.751583099365234,0.17477671802043915,0.006391586735844612,-0.001065264455974102,-0.015978965908288956,2.076236
-0.47405192255973816,9.734824180603027,0.1867477297782898,0.003195793367922306,0.001065264455974102,-0.013848437927663326,2.081236
-0.4908113479614258,9.706093788146973,0.1628057211637497,0.002130528911948204,-0.001065264455974102,-0.011717909015715122,2.086233
-0.4572925269603729,9.713275909423828,0.16519992053508759,0.001065264455974102,-0.001065264455974102,-0.007456851191818714,2.091232
-0.4572925269603729,9.720458984375,0.1867477297782898,0.0,-0.004261057823896408,-0.002130528911948204,2.096233
-0.4620809257030487,9.734824180603027,0.18914192914962769,0.0,-0.007456851191818714,0.004261057823896408,2.101238
-0.45489832758903503,9.732429504394531,0.21787235140800476,0.002130528911948204,-0.008522115647792816,0.006391586735844612,2.106261
-0.4141969084739685,9.751583099365234,0.2322375625371933,0.001065264455974102,-0.008522115647792816,0.007456851191818714,2.111246
-0.4429273009300232,9.768342971801758,0.22505496442317963,0.006391586735844612,-0.009587380103766918,0.006391586735844612,2.116241
-0.4357447028160095,9.742006301879883,0.21787235140800476,0.007456851191818714,-0.008522115647792816,0.008522115647792816,2.12124
-0.4141969084739685,9.744400978088379,0.23942017555236816,0.00532632227987051,-0.01065264455974102,0.008522115647792816,2.126239
-0.42377370595932007,9.75397777557373,0.2585737705230713,0.00532632227987051,-0.01065264455974102,0.008522115647792816,2.131265
-0.42377370595932007,9.77791976928711,0.26815059781074524,0.00532632227987051,-0.006391586735844612,0.009587380103766918,2.136245
-0.4189853072166443,9.801861763000488,0.26575639843940735,0.004261057823896408,-0.007456851191818714,0.007456851191818714,2.14125
-0.4213795065879822,9.792284965515137,0.2753331959247589,0.00532632227987051,-0.00532632227987051,0.004261057823896408,2.14625
-0.4118026793003082,9.801861763000488,0.2585737705230713,0.004261057823896408,-0.004261057823896408,0.004261057823896408,2.151249
-0.42616790533065796,9.80904483795166,0.272938996553421,0.004261057823896408,-0.001065264455974102,0.001065264455974102,2.156246
-0.42856210470199585,9.849745750427246,0.304063618183136,0.004261057823896408,-0.002130528911948204,-0.002130528911948204,2.161247
-0.4165911078453064,9.854534149169922,0.304063618183136,0.003195793367922306,0.0,-0.006391586735844612,2.166253
-0.4213795065879822,9.80904483795166,0.29209262132644653,0.002130528911948204,0.002130528911948204,-0.011717909015715122,2.171252
-0.42856210470199585,9.813833236694336,0.24899697303771973,0.001065264455974102,0.003195793367922306,-0.014913702383637428,2.17626
-0.42616790533065796,9.75397777557373,0.27054479718208313,0.003195793367922306,0.006391586735844612,-0.014913702383637428,2.181258
-0.42616790533065796,9.713275909423828,0.26096799969673157,0.004261057823896408,0.007456851191818714,-0.015978965908288956,2.186255
-0.42616790533065796,9.691728591918945,0.21308395266532898,0.00532632227987051,0.007456851191818714,-0.01810949482023716,2.191254
-0.4357447028160095,9.679757118225098,0.22505496442317963,0.004261057823896408,0.007456851191818714,-0.017044231295585632,2.196255
-0.4405331015586853,9.655815124511719,0.21308395266532898,0.004261057823896408,0.007456851191818714,-0.014913702383637428,2.201261
-0.44771572947502136,9.646238327026367,0.2082955539226532,0.004261057823896408,0.00532632227987051,-0.015978965908288956,2.206263
-0.4668693244457245,9.615114212036133,0.18914192914962769,0.0,0.00532632227987051,-0.015978965908288956,2.211268
-0.4596867263317108,9.600749015808105,0.19871874153614044,0.001065264455974102,0.003195793367922306,-0.01065264455974102,2.216263
-0.45250412821769714,9.588777542114258,0.1867477297782898,0.001065264455974102,0.0,-0.008522115647792816,2.221261
-0.4644751250743866,9.583989143371582,0.19393034279346466,-0.00532632227987051,-0.001065264455974102,-0.004261057823896408,2.226262
-0.4572925269603729,9.610325813293457,0.17238251864910126,-0.008522115647792816,-0.002130528911948204,-0.001065264455974102,2.231268
-0.45250412821769714,9.619902610778809,0.17477671802043915,-0.007456851191818714,-0.00532632227987051,0.003195793367922306,2.236269
-0.44771572947502136,9.639056205749512,0.18914192914962769,-0.009587380103766918,-0.008522115647792816,0.007456851191818714,2.241271
-0.45489832758903503,9.653421401977539,0.21787235140800476,-0.012783173471689224,-0.011717909015715122,0.008522115647792816,2.246273
-0.45489832758903503,9.66539192199707,0.2561795711517334,-0.01065264455974102,-0.01065264455974102,0.012783173471689224,2.251271
-0.43095630407333374,9.718064308166504,0.2298433631658554,-0.01065264455974102,-0.007456851191818714,0.013848437927663326,2.256269
-0.40462008118629456,9.744400978088379,0.23702596127986908,-0.01065264455974102,-0.009587380103766918,0.014913702383637428,2.261272
-0.3711012601852417,9.75637149810791,0.2537853717803955,-0.009587380103766918,-0.008522115647792816,0.011717909015715122,2.266276
-0.38067805767059326,9.782708168029785,0.272938996553421,-0.008522115647792816,-0.007456851191818714,0.008522115647792816,2.271272
-0.35673606395721436,9.763554573059082,0.2777273952960968,-0.01065264455974102,-0.003195793367922306,0.006391586735844612,2.276283
-0.3663128614425659,9.77791976928711,0.27054479718208313,-0.008522115647792816,-0.00532632227987051,0.00532632227987051,2.281281
-0.363918662071228,9.806650161743164,0.304063618183136,-0.007456851191818714,-0.004261057823896408,0.002130528911948204,2.286278
-0.3495534360408783,9.830592155456543,0.3016694188117981,-0.00532632227987051,-0.003195793367922306,-0.002130528911948204,2.291279
-0.37828385829925537,9.84495735168457,0.29209262132644653,-0.00532632227987051,-0.004261057823896408,-0.004261057823896408,2.296278
-0.4141969084739685,9.816226959228516,0.3208230137825012,-0.003195793367922306,-0.002130528911948204,-0.006391586735844612,2.301284
-0.4213795065879822,9.825803756713867,0.31842881441116333,-0.006391586735844612,-0.004261057823896408,-0.007456851191818714,2.306281
-0.40940847992897034,9.801861763000488,0.30885201692581177,-0.006391586735844612,-0.004261057823896408,-0.009587380103766918,2.311292
-0.43095630407333374,9.758766174316406,0.28969839215278625,-0.003195793367922306,-0.003195793367922306,-0.007456851191818714,2.316286
-0.45010992884635925,9.782708168029785,0.26096799969673157,-0.004261057823896408,-0.003195793367922306,-0.007456851191818714,2.321286
-0.4405331015586853,9.785101890563965,0.26096799969673157,-0.003195793367922306,-0.006391586735844612,-0.006391586735844612,2.326285
-0.47405192255973816,9.782708168029785,0.304063618183136,-0.002130528911948204,-0.007456851191818714,-0.00532632227987051,2.331289
-0.47644615173339844,9.775525093078613,0.304063618183136,-0.002130528911948204,-0.00532632227987051,-0.00532632227987051,2.336289
-0.4620809257030487,9.765948295593262,0.2944868206977844,-0.002130528911948204,-0.008522115647792816,-0.004261057823896408,2.341293
-0.45250412821769714,9.75637149810791,0.2849099934101105,0.0,-0.009587380103766918,0.001065264455974102,2.346296
-0.45489832758903503,9.75637149810791,0.272938996553421,0.001065264455974102,-0.009587380103766918,0.001065264455974102,2.351294
-0.4357447028160095,9.75397777557373,0.2753331959247589,0.00532632227987051,-0.008522115647792816,0.0,2.356293
-0.4429273009300232,9.749189376831055,0.2777273952960968,0.007456851191818714,-0.008522115647792816,0.001065264455974102,2.361293
-0.4357447028160095,9.768342971801758,0.2513911724090576,0.007456851191818714,-0.008522115647792816,0.003195793367922306,2.366299
-0.40462008118629456,9.770736694335938,0.26336219906806946,0.008522115647792816,-0.008522115647792816,0.002130528911948204,2.371295
-0.4405331015586853,9.770736694335938,0.24899697303771973,0.009587380103766918,-0.009587380103766918,0.003195793367922306,2.376306
-0.45489832758903503,9.785101890563965,0.2513911724090576,0.008522115647792816,-0.006391586735844612,0.003195793367922306,2.381304
-0.45010992884635925,9.773131370544434,0.23942017555236816,0.009587380103766918,-0.006391586735844612,0.004261057823896408,2.3863
-0.42856210470199585,9.746794700622559,0.2298433631658554,0.009587380103766918,-0.006391586735844612,0.003195793367922306,2.391299
-0.4189853072166443,9.739612579345703,0.17477671802043915,0.01065264455974102,-0.004261057823896408,0.00532632227987051,2.396301
-0.4141969084739685,9.718064308166504,0.16998831927776337,0.008522115647792816,-0.00532632227987051,0.006391586735844612,2.401306
-0.43095630407333374,9.715670585632324,0.16519992053508759,0.006391586735844612,-0.007456851191818714,0.008522115647792816,2.406306
-0.4429273009300232,9.684545516967773,0.15562310814857483,0.004261057823896408,-0.009587380103766918,0.007456851191818714,2.411314
-0.4141969084739685,9.703699111938477,0.12449848651885986,0.003195793367922306,-0.01065264455974102,0.006391586735844612,2.416309
-0.40462008118629456,9.72285270690918,0.15562310814857483,0.003195793367922306,-0.009587380103766918,0.008522115647792816,2.421308
-0.3974374830722809,9.706093788146973,0.1843535304069519,0.004261057823896408,-0.01065264455974102,0.007456851191818714,2.426307
-0.40940847992897034,9.710882186889648,0.17477671802043915,0.002130528911948204,-0.012783173471689224,0.008522115647792816,2.431314
-0.43335050344467163,9.720458984375,0.19871874153614044,0.0,-0.011717909015715122,0.009587380103766918,2.436313
-0.4357447028160095,9.710882186889648,0.20350714027881622,-0.004261057823896408,-0.011717909015715122,0.008522115647792816,2.44132
-0.4381389021873474,9.703699111938477,0.2322375625371933,-0.002130528911948204,-0.012783173471689224,0.008522115647792816,2.446318
-0.4429273009300232,9.715670585632324,0.26336219906806946,-0.00532632227987051,-0.011717909015715122,0.006391586735844612,2.451316
-0.4381389021873474,9.730035781860352,0.23942017555236816,-0.00532632227987051,-0.012783173471689224,0.006391586735844612,2.456314
-0.44771572947502136,9.732429504394531,0.23942017555236816,-0.003195793367922306,-0.013848437927663326,0.008522115647792816,2.461315
-0.44771572947502136,9.75397777557373,0.2059013396501541,-0.002130528911948204,-0.013848437927663326,0.009587380103766918,2.466322
-0.45250412821769714,9.744400978088379,0.22266076505184174,-0.001065264455974102,-0.013848437927663326,0.007456851191818714,2.47132
-0.4644751250743866,9.742006301879883,0.23702596127986908,-0.003195793367922306,-0.011717909015715122,0.007456851191818714,2.476328
-0.47405192255973816,9.739612579345703,0.21787235140800476,-0.002130528911948204,-0.009587380103766918,0.00532632227987051,2.481326
-0.4692635238170624,9.75397777557373,0.19632454216480255,-0.001065264455974102,-0.008522115647792816,0.00532632227987051,2.486324
-0.47884035110473633,9.770736694335938,0.19871874153614044,-0.001065264455974102,-0.006391586735844612,0.004261057823896408,2.491322
-0.4692635238170624,9.768342971801758,0.20111294090747833,0.0,-0.006391586735844612,0.0,2.496323
-0.49320554733276367,9.773131370544434,0.1628057211637497,0.0,-0.007456851191818714,-0.002130528911948204,2.501329
-0.49799394607543945,9.780313491821289,0.19153612852096558,-0.001065264455974102,-0.006391586735844612,-0.002130528911948204,2.506328
-0.5171475410461426,9.770736694335938,0.1867477297782898,0.001065264455974102,-0.006391586735844612,-0.001065264455974102,2.511336
-0.5195417404174805,9.775525093078613,0.15801730751991272,0.001065264455974102,-0.008522115647792816,-0.003195793367922306,2.516332
-0.5027823448181152,9.75397777557373,0.14365209639072418,0.004261057823896408,-0.006391586735844612,-0.003195793367922306,2.52133
-0.49320554733276367,9.761159896850586,0.15801730751991272,0.003195793367922306,-0.006391586735844612,-0.003195793367922306,2.52633
-0.5410895943641663,9.773131370544434,0.15083470940589905,0.002130528911948204,-0.00532632227987051,-0.007456851191818714,2.531342
-0.5770025849342346,9.761159896850586,0.12210428714752197,0.00532632227987051,-0.00532632227987051,-0.007456851191818714,2.536337
-0.5985504388809204,9.782708168029785,0.1364694982767105,0.00532632227987051,-0.006391586735844612,-0.007456851191818714,2.541346
-0.5985504388809204,9.799467086791992,0.1149216815829277,0.003195793367922306,-0.004261057823896408,-0.008522115647792816,2.546341
-0.6440402865409851,9.78989028930664,0.09576806426048279,0.001065264455974102,-0.003195793367922306,-0.009587380103766918,2.551338
-0.6488286852836609,9.854534149169922,0.09576806426048279,0.002130528911948204,-0.001065264455974102,-0.01065264455974102,2.556337
-0.6560112833976746,9.871294021606445,0.09576806426048279,0.003195793367922306,0.004261057823896408,-0.01065264455974102,2.56134
-0.6799532771110535,9.885659217834473,0.10055647045373917,-0.001065264455974102,0.009587380103766918,-0.019174760207533836,2.566344
-0.7038952708244324,9.895236015319824,0.14365209639072418,-0.002130528911948204,0.014913702383637428,-0.02130528911948204,2.57134
-0.7086837291717529,9.873687744140625,0.1364694982767105,0.0,0.020240023732185364,-0.02556634694337845,2.57635
-0.6967126727104187,9.859322547912598,0.10295066982507706,0.001065264455974102,0.023435818031430244,-0.030892668291926384,2.581349
-0.727837324142456,9.854534149169922,0.08379705995321274,0.002130528911948204,0.022370552644133568,-0.034088462591171265,2.586346
-0.7230489253997803,9.813833236694336,0.0454898327589035,0.008522115647792816,0.024501081556081772,-0.03834952041506767,2.591347
-0.7086837291717529,9.758766174316406,-0.033518824726343155,0.011717909015715122,0.024501081556081772,-0.041545312851667404,2.596347
-0.689530074596405,9.72285270690918,-0.05506663769483566,0.01065264455974102,0.022370552644133568,-0.041545312851667404,2.601352
-0.6967126727104187,9.720458984375,-0.05506663769483566,0.012783173471689224,0.020240023732185364,-0.03941478207707405,2.606351
-0.730231523513794,9.708487510681152,-0.09576806426048279,0.017044231295585632,0.01810949482023716,-0.03834952041506767,2.611358
-0.7015010714530945,9.655815124511719,-0.17477671802043915,0.019174760207533836,0.019174760207533836,-0.03941478207707405,2.616354
-0.7110779285430908,9.605537414550781,-0.1843535304069519,0.019174760207533836,0.019174760207533836,-0.03941478207707405,2.621354
-0.7254431247711182,9.552865028381348,-0.20350714027881622,0.019174760207533836,0.015978965908288956,-0.03302319720387459,2.626354
-0.7469909191131592,9.533711433410645,-0.19632454216480255,0.015978965908288956,0.012783173471689224,-0.027696875855326653,2.631359
-0.7422025203704834,9.526528358459473,-0.21787235140800476,0.01065264455974102,0.013848437927663326,-0.02556634694337845,2.636358
-0.7493851184844971,9.528923034667969,-0.22026655077934265,0.009587380103766918,0.015978965908288956,-0.024501081556081772,2.64137
-0.7852981686592102,9.545681953430176,-0.1843535304069519,0.00532632227987051,0.015978965908288956,-0.022370552644133568,2.646364
-0.7805097699165344,9.536105155944824,-0.18914192914962769,-0.002130528911948204,0.01810949482023716,-0.02130528911948204,2.651363
-0.7541735172271729,9.488221168518066,-0.2322375625371933,-0.009587380103766918,0.020240023732185364,-0.02130528911948204,2.656361
-0.7493851184844971,9.485827445983887,-0.24181437492370605,-0.013848437927663326,0.023435818031430244,-0.01810949482023716,2.661361
-0.751779317855835,9.473855972290039,-0.2298433631658554,-0.023435818031430244,0.023435818031430244,-0.012783173471689224,2.666367
-0.727837324142456,9.481039047241211,-0.2106897532939911,-0.03302319720387459,0.02556634694337845,-0.008522115647792816,2.671363
-0.7015010714530945,9.50498104095459,-0.2106897532939911,-0.04048004746437073,0.02556634694337845,-0.008522115647792816,2.676373
-0.6751648783683777,9.528923034667969,-0.19153612852096558,-0.049002163112163544,0.024501081556081772,-0.008522115647792816,2.681372
-0.6655880808830261,9.545681953430176,-0.15801730751991272,-0.05645901337265968,0.023435818031430244,-0.008522115647792816,2.686369
-0.6153098344802856,9.514557838439941,-0.2059013396501541,-0.058589544147253036,0.02130528911948204,-0.007456851191818714,2.691368
-0.5985504388809204,9.531316757202148,-0.13407529890537262,-0.0649811327457428,0.015978965908288956,-0.006391586735844612,2.69637
-0.545877993106842,9.600749015808105,-0.0454898327589035,-0.07137271761894226,0.01810949482023716,-0.008522115647792816,2.701375
-0.5267243981361389,9.641449928283691,-0.11971008777618408,-0.07563377171754837,0.01810949482023716,-0.009587380103766918,2.706374
-0.5099649429321289,9.701305389404297,-0.033518824726343155,-0.08415588736534119,0.01065264455974102,-0.009587380103766918,2.711381
-0.5219359993934631,9.739612579345703,0.08140286058187485,-0.09161274135112762,0.006391586735844612,-0.011717909015715122,2.716377
-0.5099649429321289,9.749189376831055,0.023942016065120697,-0.08628641813993454,0.003195793367922306,-0.015978965908288956,2.721376
-0.5219359993934631,9.725247383117676,-0.016759412363171577,-0.08948221057653427,-0.003195793367922306,-0.020240023732185364,2.726376
-0.49559974670410156,9.787496566772461,0.12210428714752197,-0.09374327212572098,-0.009587380103766918,-0.024501081556081772,2.73138
-0.4812345504760742,9.84495735168457,0.12928688526153564,-0.09054747968912125,-0.008522115647792816,-0.027696875855326653,2.73638
-0.4884171485900879,9.799467086791992,0.009576806798577309,-0.08948221057653427,-0.013848437927663326,-0.02876213937997818,2.741387
-0.4812345504760742,9.835380554199219,-0.023942016065120697,-0.09587379544973373,-0.023435818031430244,-0.03195793181657791,2.746387
-0.42377370595932007,9.916783332824707,0.05027823522686958,-0.09161274135112762,-0.034088462591171265,-0.03621898964047432,2.751384
-0.38546648621559143,9.914389610290527,0.026336219161748886,-0.08096009492874146,-0.04261057823896408,-0.037284255027770996,2.756383
-0.35913026332855225,9.854534149169922,-0.07661445438861847,-0.08096009492874146,-0.0511326938867569,-0.03834952041506767,2.761384
-0.35434186458587646,9.835380554199219,-0.05027823522686958,-0.07989483326673508,-0.058589544147253036,-0.041545312851667404,2.76639
-0.31364041566848755,9.825803756713867,-0.002394201699644327,-0.07137271761894226,-0.06711165606975555,-0.044741105288267136,2.771388
-0.272938996553421,9.797073364257812,-0.06703764945268631,-0.06285060197114944,-0.07776430249214172,-0.04687163606286049,2.776394
-0.27054479718208313,9.742006301879883,-0.11971008777618408,-0.05752427875995636,-0.0884169489145279,-0.04793689772486687,2.781395
-0.3711012601852417,9.713275909423828,-0.014365210197865963,-0.05006742849946022,-0.10439591109752655,-0.04793689772486687,2.786391
-0.4596867263317108,9.715670585632324,-0.011971008032560349,-0.04261057823896408,-0.11398329585790634,-0.0511326938867569,2.791391
-0.4118026793003082,9.749189376831055,-0.05506663769483566,-0.02556634694337845,-0.12250541150569916,-0.05006742849946022,2.796392
-0.36152446269989014,9.770736694335938,-0.05027823522686958,-0.013848437927663326,-0.13848437368869781,-0.04580637067556381,2.801398
-0.3232172429561615,9.835380554199219,-0.031124621629714966,-0.008522115647792816,-0.14700649678707123,-0.04687163606286049,2.806399
-0.2561795711517334,9.847352027893066,-0.05267243832349777,-0.002130528911948204,-0.15020228922367096,-0.04687163606286049,2.811404
-0.2346317619085312,9.86889934539795,-0.023942016065120697,0.002130528911948204,-0.1533980816602707,-0.0511326938867569,2.8164
-0.29209262132644653,9.832986831665039,0.002394201699644327,0.004261057823896408,-0.15552860498428345,-0.055393751710653305,2.821398
-0.35434186458587646,9.780313491821289,-0.040701430290937424,0.01065264455974102,-0.15659387409687042,-0.058589544147253036,2.826399
-0.37828385829925537,9.785101890563965,-0.06703764945268631,0.015978965908288956,-0.15872439742088318,-0.06178533658385277,2.831403
-0.38546648621559143,9.758766174316406,-0.05746084079146385,0.011717909015715122,-0.1619201898574829,-0.06711165606975555,2.836404
-0.395043283700943,9.825803756713867,-0.002394201699644327,0.01065264455974102,-0.16298545897006989,-0.07030745595693588,2.841411
-0.3758896589279175,9.816226959228516,-0.08619125932455063,0.007456851191818714,-0.15659387409687042,-0.07669904083013535,2.84641
-0.38067805767059326,9.785101890563965,-0.16998831927776337,0.0,-0.14594122767448425,-0.08096009492874146,2.851407
-0.3495534360408783,9.742006301879883,-0.15562310814857483,-0.009587380103766918,-0.14168016612529755,-0.08202536404132843,2.856406
-0.3663128614425659,9.670180320739746,-0.19153612852096558,-0.023435818031430244,-0.13528858125209808,-0.08522115647792816,2.861408
-0.4596867263317108,9.607931137084961,-0.10055647045373917,-0.04048004746437073,-0.13209278881549835,-0.0884169489145279,2.866413
-0.5027823448181152,9.624691009521484,-0.09816227108240128,-0.052197955548763275,-0.12676647305488586,-0.08735167980194092,2.871409
-0.48602294921875,9.672574996948242,-0.17717093229293823,-0.06178533658385277,-0.1203748807311058,-0.08415588736534119,2.876417
-0.4692635238170624,9.646238327026367,-0.07900865375995636,-0.06924218684434891,-0.12250541150569916,-0.08096009492874146,2.881418
-0.4405331015586853,9.670180320739746,-0.11013327538967133,-0.0788295641541481,-0.11504855751991272,-0.07989483326673508,2.886414
-0.4213795065879822,9.715670585632324,-0.06703764945268631,-0.0884169489145279,-0.11078750342130661,-0.08096009492874146,2.891415
-0.3519476354122162,9.734824180603027,-0.014365210197865963,-0.08735167980194092,-0.10546118021011353,-0.08096009492874146,2.896416
-0.3758896589279175,9.732429504394531,-0.028730420395731926,-0.08735167980194092,-0.1065264418721199,-0.07989483326673508,2.901419
-0.4213795065879822,9.749189376831055,-0.033518824726343155,-0.08948221057653427,-0.11078750342130661,-0.07989483326673508,2.906419
-0.4189853072166443,9.854534149169922,-0.021547814831137657,-0.0884169489145279,-0.11398329585790634,-0.0788295641541481,2.911428
-0.4381389021873474,9.86650562286377,0.11013327538967133,-0.08202536404132843,-0.11717908829450607,-0.07776430249214172,2.916422
-0.44771572947502136,9.86889934539795,0.10055647045373917,-0.07563377171754837,-0.1161138191819191,-0.07989483326673508,2.921423
-0.4189853072166443,9.849745750427246,-0.05746084079146385,-0.07030745595693588,-0.11291802674531937,-0.08309062570333481,2.926423
-0.3902548849582672,9.837775230407715,-0.016759412363171577,-0.0649811327457428,-0.11930961906909943,-0.08096009492874146,2.931427
-0.4213795065879822,9.847352027893066,0.004788403399288654,-0.058589544147253036,-0.12463593482971191,-0.07669904083013535,2.936425
-0.3687070608139038,9.794678688049316,-0.07182604819536209,-0.05006742849946022,-0.1257012039422989,-0.08202536404132843,2.941435
-0.2968810200691223,9.742006301879883,-0.11971008777618408,-0.03621898964047432,-0.12889699637889862,-0.08415588736534119,2.946436
-0.363918662071228,9.684545516967773,-0.12449848651885986,-0.022370552644133568,-0.13528858125209808,-0.09161274135112762,2.951431
-0.42377370595932007,9.50498104095459,-0.2513911724090576,-0.011717909015715122,-0.14061491191387177,-0.09374327212572098,2.95643
-0.4118026793003082,9.526528358459473,-0.3447650372982025,-0.01065264455974102,-0.14487595856189728,-0.08522115647792816,2.961432
-0.38067805767059326,9.552865028381348,-0.26575639843940735,-0.006391586735844612,-0.15020228922367096,-0.08096009492874146,2.966436
-0.3758896589279175,9.53849983215332,-0.3208230137825012,-0.00532632227987051,-0.14274543523788452,-0.0788295641541481,2.971432
-0.38307225704193115,9.50737476348877,-0.4141969084739685,-0.013848437927663326,-0.13741910457611084,-0.07989483326673508,2.976441
-0.35434186458587646,9.488221168518066,-0.4405331015586853,-0.019174760207533836,-0.13528858125209808,-0.0788295641541481,2.981441
-0.42856210470199585,9.418789863586426,-0.40940847992897034,-0.02556634694337845,-0.12889699637889862,-0.08096009492874146,2.986438
-0.4692635238170624,9.375694274902344,-0.45489832758903503,-0.041545312851667404,-0.1257012039422989,-0.07989483326673508,2.991437
-0.49799394607543945,9.409213066101074,-0.4908113479614258,-0.05326322093605995,-0.12357067316770554,-0.07456851005554199,2.996438
-0.5003881454467773,9.454702377319336,-0.3926490843296051,-0.06604639440774918,-0.12463593482971191,-0.06817692518234253,3.001443
-0.43335050344467163,9.425971984863281,-0.35673606395721436,-0.07563377171754837,-0.1161138191819191,-0.06604639440774918,3.006441
-0.36152446269989014,9.457097053527832,-0.47405192255973816,-0.07989483326673508,-0.1065264418721199,-0.06072007119655609,3.01145
-0.33758243918418884,9.435548782348633,-0.3734954595565796,-0.09161274135112762,-0.10439591109752655,-0.05432848632335663,3.016446
-0.33997663855552673,9.423578262329102,-0.22744916379451752,-0.1022653877735138,-0.09906959533691406,-0.052197955548763275,3.021445
-0.3878606855869293,9.404424667358398,-0.31603461503982544,-0.11291802674531937,-0.09374327212572098,-0.04793689772486687,3.026445
-0.40701428055763245,9.473855972290039,-0.31842881441116333,-0.1203748807311058,-0.09054747968912125,-0.041545312851667404,3.031453
-0.38067805767059326,9.560047149658203,-0.2082955539226532,-0.1299622654914856,-0.09374327212572098,-0.03195793181657791,3.03645
-0.36152446269989014,9.655815124511719,-0.19153612852096558,-0.1342233121395111,-0.09480853378772736,-0.024501081556081772,3.041458
-0.2944868206977844,9.730035781860352,-0.1388636976480484,-0.14061491191387177,-0.09054747968912125,-0.019174760207533836,3.046456
-0.2944868206977844,9.799467086791992,-0.10295066982507706,-0.15020228922367096,-0.08309062570333481,-0.017044231295585632,3.051453
-0.2801215946674347,9.892841339111328,-0.033518824726343155,-0.1533980816602707,-0.07989483326673508,-0.011717909015715122,3.056452
-0.23942017555236816,9.919178009033203,0.021547814831137657,-0.1576591283082962,-0.07456851005554199,-0.011717909015715122,3.061453
-0.21547815203666687,9.943120002746582,0.009576806798577309,-0.15978966653347015,-0.07137271761894226,-0.01065264455974102,3.066458
-0.16998831927776337,9.983820915222168,0.05746084079146385,-0.15233281254768372,-0.07243797928094864,-0.00532632227987051,3.071457
-0.17717093229293823,10.077195167541504,0.08858546614646912,-0.14487595856189728,-0.07456851005554199,-0.002130528911948204,3.076463
-0.12449848651885986,10.137049674987793,0.15801730751991272,-0.1395496428012848,-0.07030745595693588,-0.004261057823896408,3.081466
-0.10773907601833344,10.160991668701172,0.1867477297782898,-0.1257012039422989,-0.06391586363315582,-0.007456851191818714,3.086461
-0.12210428714752197,10.11789608001709,0.14604631066322327,-0.11398329585790634,-0.05645901337265968,-0.01065264455974102,3.09146
-0.15322890877723694,10.122684478759766,0.10534487664699554,-0.10439591109752655,-0.0511326938867569,-0.011717909015715122,3.096462
-0.2298433631658554,10.122684478759766,0.12689268589019775,-0.08948221057653427,-0.052197955548763275,-0.013848437927663326,3.101467
-0.26575639843940735,10.079588890075684,0.05746084079146385,-0.07137271761894226,-0.0511326938867569,-0.01810949482023716,3.106466
-0.2992752194404602,10.046070098876953,-0.047884032130241394,-0.06391586363315582,-0.04793689772486687,-0.022370552644133568,3.111475
-0.3232172429561615,9.96945571899414,-0.11013327538967133,-0.06178533658385277,-0.049002163112163544,-0.023435818031430244,3.116468
-0.33279404044151306,9.892841339111328,-0.20111294090747833,-0.041545312851667404,-0.04687163606286049,-0.023435818031430244,3.121467
-0.31603461503982544,9.832986831665039,-0.27054479718208313,-0.027696875855326653,-0.044741105288267136,-0.02130528911948204,3.126468
-0.33039984107017517,9.797073364257812,-0.33758243918418884,-0.02130528911948204,-0.04580637067556381,-0.015978965908288956,3.131472
-0.3734954595565796,9.765948295593262,-0.3687070608139038,-0.014913702383637428,-0.05006742849946022,-0.012783173471689224,3.136474
-0.3878606855869293,9.710882186889648,-0.4213795065879822,-0.00532632227987051,-0.049002163112163544,-0.009587380103766918,3.141484
-0.4118026793003082,9.68933391571045,-0.3998316824436188,0.004261057823896408,-0.055393751710653305,-0.00532632227987051,3.146478
-0.42377370595932007,9.718064308166504,-0.3256114423274994,0.012783173471689224,-0.05752427875995636,-0.002130528911948204,3.151476
-0.4381389021873474,9.648633003234863,-0.35673606395721436,0.020240023732185364,-0.05432848632335663,-0.002130528911948204,3.156475
-0.4141969084739685,9.514557838439941,-0.4213795065879822,0.037284255027770996,-0.0511326938867569,0.003195793367922306,3.161477
-0.4357447028160095,9.57201862335205,-0.4141969084739685,0.041545312851667404,-0.055393751710653305,0.012783173471689224,3.166482
-0.47884035110473633,9.619902610778809,-0.42616790533065796,0.037284255027770996,-0.055393751710653305,0.01065264455974102,3.171478
-0.47644615173339844,9.581595420837402,-0.35434186458587646,0.04793689772486687,-0.0511326938867569,0.004261057823896408,3.176486
-0.47884035110473633,9.583989143371582,-0.3902548849582672,0.05645901337265968,-0.04793689772486687,0.004261057823896408,3.181486
-0.47165772318840027,9.605537414550781,-0.43095630407333374,0.05326322093605995,-0.04367583990097046,0.003195793367922306,3.186483
-0.47644615173339844,9.605537414550781,-0.40462008118629456,0.05645901337265968,-0.04048004746437073,-0.001065264455974102,3.191484
-0.47165772318840027,9.641449928283691,-0.38307225704193115,0.05752427875995636,-0.029827404767274857,-0.007456851191818714,3.196498
-0.507570743560791,9.648633003234863,-0.3016694188117981,0.052197955548763275,-0.019174760207533836,-0.009587380103766918,3.201489
-0.5219359993934631,9.732429504394531,-0.3734954595565796,0.052197955548763275,-0.002130528911948204,-0.011717909015715122,3.206488
-0.5267243981361389,9.765948295593262,-0.44532153010368347,0.04687163606286049,0.004261057823896408,-0.01810949482023716,3.211498
-0.5602431893348694,9.770736694335938,-0.3974374830722809,0.030892668291926384,0.003195793367922306,-0.024501081556081772,3.21649
-0.5817909836769104,9.818621635437012,-0.26336219906806946,0.024501081556081772,0.00532632227987051,-0.030892668291926384,3.221491
-0.6057330369949341,9.835380554199219,-0.304063618183136,0.019174760207533836,0.008522115647792816,-0.03515372797846794,3.226491
-0.6224924325942993,9.835380554199219,-0.2753331959247589,0.011717909015715122,0.009587380103766918,-0.041545312851667404,3.231495
-0.6392518281936646,9.86889934539795,-0.21787235140800476,0.007456851191818714,0.01065264455974102,-0.04687163606286049,3.236495
-0.6320692300796509,9.907206535339355,-0.17238251864910126,0.004261057823896408,0.013848437927663326,-0.0511326938867569,3.241512
-0.6368576288223267,9.93593692779541,-0.17238251864910126,0.001065264455974102,0.01810949482023716,-0.05432848632335663,3.246502
-0.6488286852836609,9.95748519897461,-0.1843535304069519,-0.003195793367922306,0.019174760207533836,-0.05432848632335663,3.251499
-0.6416460275650024,9.962273597717285,-0.16759411990642548,-0.006391586735844612,0.022370552644133568,-0.05645901337265968,3.256498
-0.6368576288223267,9.93354320526123,-0.17956513166427612,-0.004261057823896408,0.027696875855326653,-0.055393751710653305,3.261499
-0.6392518281936646,9.93593692779541,-0.2106897532939911,-0.003195793367922306,0.030892668291926384,-0.05432848632335663,3.266504
-0.6655880808830261,9.909601211547852,-0.2106897532939911,-0.002130528911948204,0.029827404767274857,-0.04793689772486687,3.271501
-0.6512228846549988,9.897629737854004,-0.22026655077934265,0.001065264455974102,0.030892668291926384,-0.041545312851667404,3.27651
-0.608127236366272,9.849745750427246,-0.24181437492370605,0.00532632227987051,0.027696875855326653,-0.03302319720387459,3.28151
-0.6057330369949341,9.813833236694336,-0.2513911724090576,0.00532632227987051,0.027696875855326653,-0.024501081556081772,3.286507
-0.5961562395095825,9.799467086791992,-0.2561795711517334,0.009587380103766918,0.026631610468029976,-0.012783173471689224,3.291506
-0.5267243981361389,9.782708168029785,-0.28969839215278625,0.014913702383637428,0.023435818031430244,0.0,3.296512
-0.48602294921875,9.792284965515137,-0.2298433631658554,0.020240023732185364,0.020240023732185364,0.011717909015715122,3.301512
-0.45250412821769714,9.787496566772461,-0.19393034279346466,0.022370552644133568,0.020240023732185364,0.024501081556081772,3.306512
-0.4381389021873474,9.782708168029785,-0.2322375625371933,0.027696875855326653,0.019174760207533836,0.03621898964047432,3.31152
-0.42616790533065796,9.832986831665039,-0.19632454216480255,0.03302319720387459,0.015978965908288956,0.049002163112163544,3.316515
-0.40940847992897034,9.928754806518555,-0.1388636976480484,0.03621898964047432,0.01810949482023716,0.06072007119655609,3.321517
-0.3734954595565796,9.955090522766113,-0.10055647045373917,0.04048004746437073,0.019174760207533836,0.07243797928094864,3.326515
-0.3471592366695404,9.981427192687988,-0.06703764945268631,0.044741105288267136,0.022370552644133568,0.08096009492874146,3.331519
-0.33279404044151306,9.979032516479492,-0.047884032130241394,0.049002163112163544,0.027696875855326653,0.08628641813993454,3.336517
-0.31364041566848755,10.005369186401367,-0.021547814831137657,0.05326322093605995,0.03195793181657791,0.092678003013134,3.341534
-0.28969839215278625,10.02452278137207,-0.038307227194309235,0.055393751710653305,0.03621898964047432,0.10013485699892044,3.346525
-0.22026655077934265,10.014945983886719,-0.0694318488240242,0.05965480953454971,0.03941478207707405,0.10546118021011353,3.351522
-0.16759411990642548,10.04846477508545,-0.0694318488240242,0.06604639440774918,0.04261057823896408,0.10865697264671326,3.356521
-0.10773907601833344,10.077195167541504,-0.07900865375995636,0.07030745595693588,0.04261057823896408,0.11398329585790634,3.361522
-0.031124621629714966,10.08437728881836,-0.08858546614646912,0.07350324839353561,0.04793689772486687,0.1161138191819191,3.366528
0.011971008032560349,10.08437728881836,-0.11252748221158981,0.08096009492874146,0.052197955548763275,0.1161138191819191,3.371526
0.038307227194309235,10.02691650390625,-0.19153612852096558,0.08628641813993454,0.055393751710653305,0.1161138191819191,3.376534
0.031124621629714966,9.998186111450195,-0.2106897532939911,0.09374327212572098,0.05432848632335663,0.1161138191819191,3.381533
0.011971008032560349,9.983820915222168,-0.24660277366638184,0.10120011866092682,0.052197955548763275,0.11824434995651245,3.38653
0.023942016065120697,9.967061996459961,-0.33039984107017517,0.10759170353412628,0.04793689772486687,0.11824434995651245,3.391529
0.021547814831137657,9.914389610290527,-0.363918662071228,0.11504855751991272,0.04580637067556381,0.11930961906909943,3.396531
0.028730420395731926,9.895236015319824,-0.40222588181495667,0.1203748807311058,0.04580637067556381,0.1203748807311058,3.401536
0.05985504388809204,9.883264541625977,-0.43335050344467163,0.12357067316770554,0.04580637067556381,0.1203748807311058,3.406534
0.07661445438861847,9.890447616577148,-0.4165911078453064,0.1203748807311058,0.04793689772486687,0.12463593482971191,3.411543
0.05985504388809204,9.876082420349121,-0.4213795065879822,0.1161138191819191,0.0511326938867569,0.12676647305488586,3.416537
0.0071826050989329815,9.864110946655273,-0.38307225704193115,0.11291802674531937,0.05432848632335663,0.1257012039422989,3.421537
-0.033518824726343155,9.828198432922363,-0.3663128614425659,0.10439591109752655,0.058589544147253036,0.12250541150569916,3.426537
-0.031124621629714966,9.804255485534668,-0.30885201692581177,0.09587379544973373,0.06178533658385277,0.1203748807311058,3.431543
-0.043095629662275314,9.801861763000488,-0.2537853717803955,0.08415588736534119,0.06817692518234253,0.11930961906909943,3.436542
-0.028730420395731926,9.813833236694336,-0.22266076505184174,0.07137271761894226,0.07243797928094864,0.11930961906909943,3.441545
-0.090979665517807,9.818621635437012,-0.14844051003456116,0.06178533658385277,0.07563377171754837,0.1161138191819191,3.446548
-0.14844051003456116,9.832986831665039,-0.07422025501728058,0.052197955548763275,0.08309062570333481,0.11398329585790634,3.451545
-0.18914192914962769,9.825803756713867,-0.0071826050989329815,0.04580637067556381,0.09161274135112762,0.10972223430871964,3.456545
-0.2082955539226532,9.823410034179688,0.021547814831137657,0.04367583990097046,0.09906959533691406,0.1065264418721199,3.461546
-0.23702596127986908,9.840168952941895,0.0694318488240242,0.04261057823896408,0.10333064943552017,0.10546118021011353,3.466551
-0.26815059781074524,9.859322547912598,0.12449848651885986,0.03941478207707405,0.10546118021011353,0.10013485699892044,3.471547
-0.272938996553421,9.895236015319824,0.17956513166427612,0.04048004746437073,0.1065264418721199,0.09800432622432709,3.476555
-0.30885201692581177,9.914389610290527,0.1364694982767105,0.03941478207707405,0.10865697264671326,0.09800432622432709,3.481559
-0.33279404044151306,9.919178009033203,0.26575639843940735,0.03834952041506767,0.10546118021011353,0.09693906456232071,3.486553
-0.35913026332855225,9.93593692779541,0.304063618183136,0.04048004746437073,0.10546118021011353,0.09480853378772736,3.491553
-0.3495534360408783,9.950302124023438,0.304063618183136,0.044741105288267136,0.10333064943552017,0.092678003013134,3.496554
-0.31842881441116333,9.90241813659668,0.30885201692581177,0.0511326938867569,0.09906959533691406,0.09161274135112762,3.501559
-0.31842881441116333,9.876082420349121,0.28969839215278625,0.055393751710653305,0.09693906456232071,0.09054747968912125,3.506558
-0.31364041566848755,9.883264541625977,0.31124621629714966,0.058589544147253036,0.09161274135112762,0.092678003013134,3.511567
-0.304063618183136,9.864110946655273,0.3208230137825012,0.06391586363315582,0.0884169489145279,0.09587379544973373,3.51656
-0.29209262132644653,9.832986831665039,0.3495534360408783,0.07137271761894226,0.08522115647792816,0.09800432622432709,3.52156
-0.2849099934101105,9.830592155456543,0.3471592366695404,0.07563377171754837,0.08202536404132843,0.10013485699892044,3.526561
-0.2801215946674347,9.871294021606445,0.33279404044151306,0.08309062570333481,0.0788295641541481,0.10013485699892044,3.531565
-0.28730419278144836,9.830592155456543,0.3687070608139038,0.08948221057653427,0.07350324839353561,0.10120011866092682,3.536564
-0.2944868206977844,9.806650161743164,0.38307225704193115,0.09693906456232071,0.07243797928094864,0.10013485699892044,3.541569
-0.26815059781074524,9.78989028930664,0.38067805767059326,0.10120011866092682,0.0788295641541481,0.09693906456232071,3.546571
-0.26815059781074524,9.797073364257812,0.3758896589279175,0.10439591109752655,0.08096009492874146,0.09800432622432709,3.551569
-0.28969839215278625,9.780313491821289,0.40701428055763245,0.10759170353412628,0.08415588736534119,0.09480853378772736,3.556567
-0.2753331959247589,9.782708168029785,0.38546648621559143,0.10972223430871964,0.0884169489145279,0.09161274135112762,3.561568
-0.2944868206977844,9.737217903137207,0.37828385829925537,0.11398329585790634,0.09480853378772736,0.08948221057653427,3.566573
-0.31842881441116333,9.6989107131958,0.36152446269989014,0.11398329585790634,0.09800432622432709,0.08309062570333481,3.57157
-0.3208230137825012,9.727641105651855,0.35434186458587646,0.11185276508331299,0.10120011866092682,0.0788295641541481,3.57658
-0.3687070608139038,9.6989107131958,0.33518823981285095,0.1065264418721199,0.10972223430871964,0.07456851005554199,3.581582
-0.43095630407333374,9.696516990661621,0.28730419278144836,0.09587379544973373,0.11717908829450607,0.06711165606975555,3.586576
-0.47405192255973816,9.674968719482422,0.23942017555236816,0.08948221057653427,0.12463593482971191,0.05752427875995636,3.591575
-0.5099649429321289,9.622296333312988,0.16519992053508759,0.08096009492874146,0.13102751970291138,0.05432848632335663,3.596577
-0.5530605912208557,9.583989143371582,0.11971008777618408,0.06604639440774918,0.13528858125209808,0.05326322093605995,3.601581
-0.6105214357376099,9.536105155944824,0.10295066982507706,0.05326322093605995,0.13635385036468506,0.052197955548763275,3.60658
-0.6392518281936646,9.560047149658203,0.05267243832349777,0.03941478207707405,0.13848437368869781,0.05006742849946022,3.611589
-0.6703764796257019,9.564835548400879,0.004788403399288654,0.027696875855326653,0.1342233121395111,0.049002163112163544,3.616583
-0.689530074596405,9.576807022094727,-0.023942016065120697,0.013848437927663326,0.13528858125209808,0.04793689772486687,3.621583
-0.6584054827690125,9.627084732055664,-0.07182604819536209,-0.00532632227987051,0.1342233121395111,0.04793689772486687,3.626583
-0.689530074596405,9.674968719482422,-0.0933738648891449,-0.022370552644133568,0.13102751970291138,0.04793689772486687,3.631588
-0.727837324142456,9.718064308166504,-0.016759412363171577,-0.044741105288267136,0.12783172726631165,0.049002163112163544,3.636587
-0.7326257228851318,9.758766174316406,0.06703764945268631,-0.06072007119655609,0.12357067316770554,0.05326322093605995,3.641592
-0.7206547260284424,9.804255485534668,0.12689268589019775,-0.07456851005554199,0.11717908829450607,0.05432848632335663,3.646594
-0.6943184733390808,9.832986831665039,0.15322890877723694,-0.08628641813993454,0.10865697264671326,0.055393751710653305,3.651592
-0.689530074596405,9.8784761428833,0.2585737705230713,-0.09161274135112762,0.10013485699892044,0.06072007119655609,3.65659
-0.667982280254364,9.955090522766113,0.3447650372982025,-0.09800432622432709,0.09161274135112762,0.06391586363315582,3.661591
-0.6799532771110535,10.031704902648926,0.5219359993934631,-0.09906959533691406,0.08096009492874146,0.06604639440774918,3.666596
-0.6943184733390808,10.08198356628418,0.6177040338516235,-0.09800432622432709,0.07456851005554199,0.06391586363315582,3.671595
-0.6631938815116882,10.074800491333008,0.7182605266571045,-0.09161274135112762,0.07030745595693588,0.06285060197114944,3.6766
-0.6440402865409851,10.0580415725708,0.7326257228851318,-0.08202536404132843,0.06178533658385277,0.06604639440774918,3.681602
-0.6272808313369751,10.125079154968262,0.8020575642585754,-0.07456851005554199,0.055393751710653305,0.06924218684434891,3.686599
-0.6344634294509888,10.177751541137695,0.8810662031173706,-0.06817692518234253,0.052197955548763275,0.06817692518234253,3.691598
-0.6177040338516235,10.168174743652344,0.9289502501487732,-0.055393751710653305,0.04793689772486687,0.06178533658385277,3.696601
-0.569819986820221,10.146626472473145,0.9026140570640564,-0.04367583990097046,0.04367583990097046,0.06178533658385277,3.701605
-0.5386953949928284,10.091560363769531,0.8619126081466675,-0.030892668291926384,0.041545312851667404,0.06072007119655609,3.706604
-0.49559974670410156,10.038887977600098,0.8690952062606812,-0.011717909015715122,0.03834952041506767,0.058589544147253036,3.711611
-0.4357447028160095,10.022128105163574,0.8020575642585754,0.0,0.03302319720387459,0.055393751710653305,3.716609
-0.3902548849582672,9.998186111450195,0.7589619159698486,0.012783173471689224,0.029827404767274857,0.05326322093605995,3.721606
-0.35913026332855225,9.945513725280762,0.6799532771110535,0.03195793181657791,0.029827404767274857,0.052197955548763275,3.726606
-0.3208230137825012,9.856928825378418,0.5961562395095825,0.04367583990097046,0.026631610468029976,0.04793689772486687,3.731612
-0.35434186458587646,9.78989028930664,0.5602431893348694,0.058589544147253036,0.022370552644133568,0.04261057823896408,3.736612
-0.35434186458587646,9.758766174316406,0.5003881454467773,0.07350324839353561,0.020240023732185364,0.03834952041506767,3.741616
-0.363918662071228,9.734824180603027,0.44532153010368347,0.08309062570333481,0.01810949482023716,0.034088462591171265,3.746617
-0.40462008118629456,9.674968719482422,0.38067805767059326,0.08948221057653427,0.019174760207533836,0.029827404767274857,3.751614
-0.4357447028160095,9.670180320739746,0.31364041566848755,0.09480853378772736,0.02130528911948204,0.022370552644133568,3.756613
-0.48602294921875,9.672574996948242,0.28730419278144836,0.09693906456232071,0.02556634694337845,0.019174760207533836,3.761615
-0.5027823448181152,9.655815124511719,0.24660277366638184,0.08948221057653427,0.034088462591171265,0.012783173471689224,3.76662
-0.5482721924781799,9.617507934570312,0.21787235140800476,0.07776430249214172,0.03621898964047432,0.00532632227987051,3.771616
-0.6033388376235962,9.581595420837402,0.2346317619085312,0.06711165606975555,0.04048004746437073,0.003195793367922306,3.776625
-0.6560112833976746,9.5408935546875,0.2346317619085312,0.055393751710653305,0.041545312851667404,-0.001065264455974102,3.781625
-0.689530074596405,9.473855972290039,0.19153612852096558,0.04580637067556381,0.04367583990097046,-0.00532632227987051,3.786622
-0.667982280254364,9.440337181091309,0.1628057211637497,0.03195793181657791,0.044741105288267136,-0.006391586735844612,3.791622
-0.6751648783683777,9.387664794921875,0.1364694982767105,0.01810949482023716,0.04261057823896408,-0.00532632227987051,3.796624
-0.7158663272857666,9.351752281188965,0.1173158809542656,0.00532632227987051,0.03941478207707405,-0.004261057823896408,3.801628
-0.7757213711738586,9.32302188873291,0.08379705995321274,-0.008522115647792816,0.03621898964047432,-0.001065264455974102,3.806628
-0.8858546018600464,9.289502143859863,-0.002394201699644327,-0.019174760207533836,0.03515372797846794,0.002130528911948204,3.811635
-0.9074024558067322,9.284713745117188,-0.07182604819536209,-0.029827404767274857,0.030892668291926384,0.00532632227987051,3.816629
-0.9265560507774353,9.30386734008789,-0.08619125932455063,-0.04048004746437073,0.026631610468029976,0.008522115647792816,3.821629
-0.9648633003234863,9.41639518737793,-0.07422025501728058,-0.05432848632335663,0.020240023732185364,0.011717909015715122,3.82663
-1.0007762908935547,9.485827445983887,-0.10055647045373917,-0.06817692518234253,0.014913702383637428,0.012783173471689224,3.831634
-0.9720458984375,9.5408935546875,-0.07182604819536209,-0.08309062570333481,0.012783173471689224,0.014913702383637428,3.836632
-0.8834604024887085,9.627084732055664,-0.06224924325942993,-0.09161274135112762,0.008522115647792816,0.022370552644133568,3.841638
-0.8164227604866028,9.718064308166504,-0.016759412363171577,-0.09906959533691406,0.00532632227987051,0.024501081556081772,3.84664
-0.7589619159698486,9.77791976928711,0.06703764945268631,-0.10333064943552017,0.001065264455974102,0.024501081556081772,3.851638
-0.7038952708244324,9.80904483795166,0.12210428714752197,-0.10546118021011353,-0.001065264455974102,0.026631610468029976,3.856637
-0.6344634294509888,9.873687744140625,0.22744916379451752,-0.10546118021011353,-0.00532632227987051,0.02556634694337845,3.861637
-0.5770025849342346,9.895236015319824,0.3232172429561615,-0.09800432622432709,-0.011717909015715122,0.02130528911948204,3.866643
-0.5291185975074768,9.914389610290527,0.4189853072166443,-0.0884169489145279,-0.015978965908288956,0.020240023732185364,3.871639
-0.5147533416748047,9.919178009033203,0.43095630407333374,-0.07350324839353561,-0.019174760207533836,0.015978965908288956,3.876648
-0.4620809257030487,9.914389610290527,0.4596867263317108,-0.06072007119655609,-0.02556634694337845,0.012783173471689224,3.881648
-0.4644751250743866,9.923966407775879,0.4812345504760742,-0.044741105288267136,-0.027696875855326653,0.013848437927663326,3.886645
-0.4596867263317108,9.904812812805176,0.5027823448181152,-0.03195793181657791,-0.02876213937997818,0.009587380103766918,3.891644
-0.4596867263317108,9.897629737854004,0.5147533416748047,-0.02130528911948204,-0.02556634694337845,0.007456851191818714,3.896647
-0.4668693244457245,9.919178009033203,0.5195417404174805,-0.004261057823896408,-0.02130528911948204,0.00532632227987051,3.90165
-0.4812345504760742,9.919178009033203,0.5123591423034668,0.007456851191818714,-0.017044231295585632,0.002130528911948204,3.906648
-0.44771572947502136,9.904812812805176,0.4692635238170624,0.01810949482023716,-0.012783173471689224,0.0,3.911658
-0.4812345504760742,9.864110946655273,0.45010992884635925,0.030892668291926384,-0.008522115647792816,-0.002130528911948204,3.916652
-0.4908113479614258,9.840168952941895,0.42616790533065796,0.04261057823896408,-0.003195793367922306,-0.00532632227987051,3.921652
-0.47405192255973816,9.813833236694336,0.31842881441116333,0.05326322093605995,0.0,-0.012783173471689224,3.926652
-0.4668693244457245,9.775525093078613,0.22744916379451752,0.05965480953454971,0.003195793367922306,-0.013848437927663326,3.931658
-0.47405192255973816,9.758766174316406,0.21308395266532898,0.06285060197114944,0.001065264455974102,-0.014913702383637428,3.936656
-0.5195417404174805,9.732429504394531,0.1867477297782898,0.06391586363315582,0.0,-0.017044231295585632,3.941664
-0.5147533416748047,9.725247383117676,0.15083470940589905,0.06391586363315582,0.004261057823896408,-0.019174760207533836,3.946663
-0.5530605912208557,9.710882186889648,0.08379705995321274,0.06178533658385277,0.008522115647792816,-0.02130528911948204,3.951661
-0.5746083855628967,9.696516990661621,0.08379705995321274,0.05645901337265968,0.007456851191818714,-0.023435818031430244,3.956659
-0.6033388376235962,9.682151794433594,0.07422025501728058,0.049002163112163544,0.00532632227987051,-0.026631610468029976,3.96166
-0.6368576288223267,9.696516990661621,0.07422025501728058,0.044741105288267136,0.006391586735844612,-0.02876213937997818,3.966666
-0.6392518281936646,9.667786598205566,0.035913024097681046,0.04048004746437073,0.007456851191818714,-0.030892668291926384,3.971664
-0.6416460275650024,9.672574996948242,-0.026336219161748886,0.03195793181657791,0.008522115647792816,-0.030892668291926384,3.976671
-0.6631938815116882,9.6989107131958,0.0,0.024501081556081772,0.007456851191818714,-0.03302319720387459,3.981671
-0.6847416758537292,9.68694019317627,0.06464344263076782,0.02130528911948204,0.003195793367922306,-0.029827404767274857,3.986668
-0.6775590777397156,9.674968719482422,0.07182604819536209,0.017044231295585632,0.004261057823896408,-0.030892668291926384,3.991667
-0.7134721279144287,9.677363395690918,0.016759412363171577,0.011717909015715122,0.004261057823896408,-0.03195793181657791,3.99667
-0.706289529800415,9.674968719482422,0.05506663769483566,0.009587380103766918,0.002130528911948204,-0.029827404767274857,4.001673
-0.6919242739677429,9.684545516967773,0.05506663769483566,0.007456851191818714,-0.002130528911948204,-0.026631610468029976,4.006676
-0.689530074596405,9.68933391571045,0.016759412363171577,0.006391586735844612,-0.009587380103766918,-0.024501081556081772,4.011682
-0.6799532771110535,9.66299819946289,0.002394201699644327,0.006391586735844612,-0.014913702383637428,-0.023435818031430244,4.016675
-0.6512228846549988,9.63187313079834,0.019153613597154617,0.009587380103766918,-0.022370552644133568,-0.02130528911948204,4.021674
-0.6536170840263367,9.607931137084961,-0.002394201699644327,0.011717909015715122,-0.024501081556081772,-0.020240023732185364,4.026675
-0.6368576288223267,9.59835433959961,-0.043095629662275314,0.014913702383637428,-0.030892668291926384,-0.017044231295585632,4.031681
-0.6057330369949341,9.581595420837402,-0.08140286058187485,0.020240023732185364,-0.03621898964047432,-0.01810949482023716,4.036681
-0.6631938815116882,9.536105155944824,-0.13407529890537262,0.02876213937997818,-0.03834952041506767,-0.01810949482023716,4.041686
-0.6631938815116882,9.500192642211914,-0.20350714027881622,0.03195793181657791,-0.04687163606286049,-0.019174760207533836,4.046687
-0.6703764796257019,9.469067573547363,-0.20350714027881622,0.03621898964047432,-0.05326322093605995,-0.022370552644133568,4.051684
-0.6799532771110535,9.44991397857666,-0.22744916379451752,0.04261057823896408,-0.05752427875995636,-0.02130528911948204,4.056682
-0.6751648783683777,9.454702377319336,-0.26336219906806946,0.04793689772486687,-0.06285060197114944,-0.02130528911948204,4.061685
-0.6919242739677429,9.478644371032715,-0.2513911724090576,0.04793689772486687,-0.0649811327457428,-0.02556634694337845,4.066689
-0.7038952708244324,9.490615844726562,-0.26815059781074524,0.04793689772486687,-0.0649811327457428,-0.026631610468029976,4.071686
-0.706289529800415,9.457097053527832,-0.26815059781074524,0.05326322093605995,-0.05965480953454971,-0.03302319720387459,4.076695
-0.727837324142456,9.47146224975586,-0.2968810200691223,0.05326322093605995,-0.0511326938867569,-0.04261057823896408,4.081694
-0.768538773059845,9.440337181091309,-0.2825157940387726,0.052197955548763275,-0.04580637067556381,-0.04793689772486687,4.086691
-0.7709329724311829,9.41639518737793,-0.2561795711517334,0.0511326938867569,-0.04048004746437073,-0.05432848632335663,4.091691
-0.768538773059845,9.39245319366455,-0.2825157940387726,0.049002163112163544,-0.03195793181657791,-0.058589544147253036,4.096694
-0.7469909191131592,9.409213066101074,-0.31603461503982544,0.04580637067556381,-0.029827404767274857,-0.06391586363315582,4.101697
-0.7781155705451965,9.430760383605957,-0.30885201692581177,0.04048004746437073,-0.023435818031430244,-0.06817692518234253,4.106696
-0.7589619159698486,9.459490776062012,-0.2992752194404602,0.037284255027770996,-0.019174760207533836,-0.07030745595693588,4.111703
-0.7565677165985107,9.452308654785156,-0.3016694188117981,0.02876213937997818,-0.017044231295585632,-0.07137271761894226,4.116699
-0.790086567401886,9.469067573547363,-0.2753331959247589,0.019174760207533836,-0.012783173471689224,-0.07030745595693588,4.121699
-0.8164227604866028,9.531316757202148,-0.2106897532939911,0.009587380103766918,-0.011717909015715122,-0.0649811327457428,4.126699
-0.8307880163192749,9.576807022094727,-0.17717093229293823,0.003195793367922306,-0.012783173471689224,-0.05965480953454971,4.131703
-0.8547300100326538,9.59835433959961,-0.13168109953403473,-0.00532632227987051,-0.015978965908288956,-0.055393751710653305,4.136703
-0.8355764150619507,9.670180320739746,-0.12449848651885986,-0.011717909015715122,-0.02130528911948204,-0.05326322093605995,4.141709
-0.828393816947937,9.801861763000488,-0.1149216815829277,-0.020240023732185364,-0.02876213937997818,-0.04580637067556381,4.146709
-0.7972691655158997,9.928754806518555,0.0,-0.026631610468029976,-0.037284255027770996,-0.041545312851667404,4.151707
-0.8068459630012512,10.043676376342773,0.043095629662275314,-0.029827404767274857,-0.04048004746437073,-0.03834952041506767,4.156706
-0.8523358106613159,10.134655952453613,0.090979665517807,-0.030892668291926384,-0.04367583990097046,-0.03302319720387459,4.161706
-0.8571242094039917,10.220847129821777,0.10295066982507706,-0.026631610468029976,-0.0511326938867569,-0.030892668291926384,4.166712
-0.8331822156906128,10.268731117248535,0.1604115068912506,-0.020240023732185364,-0.058589544147253036,-0.03195793181657791,4.171709
-0.8140285611152649,10.357316970825195,0.22026655077934265,-0.011717909015715122,-0.06285060197114944,-0.030892668291926384,4.176718
-0.8188169598579407,10.436325073242188,0.2825157940387726,-0.003195793367922306,-0.06285060197114944,-0.03302319720387459,4.181717
-0.8427590131759644,10.467450141906738,0.3208230137825012,0.009587380103766918,-0.06711165606975555,-0.03621898964047432,4.186716
-0.8188169598579407,10.512939453125,0.3064578175544739,0.023435818031430244,-0.07137271761894226,-0.03941478207707405,4.191713
-0.7326257228851318,10.536881446838379,0.3232172429561615,0.037284255027770996,-0.07669904083013535,-0.04261057823896408,4.196717
-0.706289529800415,10.527304649353027,0.3471592366695404,0.05645901337265968,-0.08096009492874146,-0.049002163112163544,4.201721
-0.6823474764823914,10.462661743164062,0.272938996553421,0.07563377171754837,-0.08415588736534119,-0.05752427875995636,4.20672
-0.6607996821403503,10.433931350708008,0.1604115068912506,0.09693906456232071,-0.0884169489145279,-0.05965480953454971,4.211727
-0.6703764796257019,10.359710693359375,0.1388636976480484,0.11717908829450607,-0.09374327212572098,-0.06391586363315582,4.216722
-0.6584054827690125,10.302249908447266,0.0933738648891449,0.13528858125209808,-0.09587379544973373,-0.07243797928094864,4.221721
-0.646434485912323,10.223240852355957,0.040701430290937424,0.15446333587169647,-0.09693906456232071,-0.07669904083013535,4.226722
-0.7182605266571045,10.180145263671875,-0.05985504388809204,0.17257283627986908,-0.09693906456232071,-0.08309062570333481,4.231726
-0.7565677165985107,10.093954086303711,-0.14365209639072418,0.18322548270225525,-0.09480853378772736,-0.092678003013134,4.236725
-0.8020575642585754,9.96945571899414,-0.2059013396501541,0.1896170675754547,-0.09054747968912125,-0.09693906456232071,4.241732
-0.7948749661445618,9.81143856048584,-0.31364041566848755,0.1906823366880417,-0.0884169489145279,-0.10439591109752655,4.246732
-0.7972691655158997,9.749189376831055,-0.36152446269989014,0.185356006026268,-0.08948221057653427,-0.1022653877735138,4.25173
-0.7805097699165344,9.694122314453125,-0.363918662071228,0.16831177473068237,-0.08948221057653427,-0.09800432622432709,4.256728
-0.7613561153411865,9.62947940826416,-0.37828385829925537,0.14700649678707123,-0.0884169489145279,-0.09800432622432709,4.26173
-0.730231523513794,9.607931137084961,-0.42616790533065796,0.12676647305488586,-0.0884169489145279,-0.09374327212572098,4.266735
-0.7110779285430908,9.643844604492188,-0.363918662071228,0.09693906456232071,-0.09587379544973373,-0.08735167980194092,4.271733
-0.6344634294509888,9.720458984375,-0.27054479718208313,0.06817692518234253,-0.10013485699892044,-0.08628641813993454,4.276742
-0.5746083855628967,9.737217903137207,-0.15562310814857483,0.03834952041506767,-0.09693906456232071,-0.08522115647792816,4.28174
-0.5506663918495178,9.801861763000488,-0.06224924325942993,0.007456851191818714,-0.10013485699892044,-0.08202536404132843,4.286738
-0.5602431893348694,9.890447616577148,0.043095629662275314,-0.02130528911948204,-0.10333064943552017,-0.08522115647792816,4.291737
-0.5650315880775452,9.90241813659668,0.13168109953403473,-0.04048004746437073,-0.1022653877735138,-0.08522115647792816,4.29674
-0.545877993106842,9.93593692779541,0.24420857429504395,-0.05965480953454971,-0.09480853378772736,-0.08735167980194092,4.301744
-0.5482721924781799,9.995792388916016,0.3208230137825012,-0.07776430249214172,-0.09161274135112762,-0.09161274135112762,4.306743
-0.5291185975074768,10.014945983886719,0.3687070608139038,-0.092678003013134,-0.08948221057653427,-0.09374327212572098,4.31175
-0.5267243981361389,10.050858497619629,0.4189853072166443,-0.10865697264671326,-0.0884169489145279,-0.09374327212572098,4.316745
-0.5195417404174805,10.101137161254883,0.48602294921875,-0.12357067316770554,-0.09054747968912125,-0.09480853378772736,4.321744
-0.5099649429321289,10.211270332336426,0.6584054827690125,-0.13635385036468506,-0.09054747968912125,-0.09374327212572098,4.326745
-0.5051765441894531,10.249577522277832,0.7182605266571045,-0.14274543523788452,-0.08522115647792816,-0.09161274135112762,4.331751
-0.4836287498474121,10.199298858642578,0.6440402865409851,-0.14913702011108398,-0.08522115647792816,-0.08735167980194092,4.33675
-0.4668693244457245,10.129867553710938,0.6919242739677429,-0.15126754343509674,-0.08628641813993454,-0.08202536404132843,4.341755
-0.4118026793003082,10.077195167541504,0.7182605266571045,-0.1438107043504715,-0.08735167980194092,-0.08096009492874146,4.346755
-0.3519476354122162,9.995792388916016,0.646434485912323,-0.13102751970291138,-0.09054747968912125,-0.07989483326673508,4.351753
-0.28730419278144836,9.962273597717285,0.6655880808830261,-0.11185276508331299,-0.092678003013134,-0.08096009492874146,4.356752
-0.23702596127986908,9.940725326538086,0.6727706789970398,-0.092678003013134,-0.09587379544973373,-0.07989483326673508,4.361754
-0.15322890877723694,9.830592155456543,0.6224924325942993,-0.07030745595693588,-0.09693906456232071,-0.08309062570333481,4.366759
-0.08379705995321274,9.782708168029785,0.586579442024231,-0.04367583990097046,-0.10013485699892044,-0.08522115647792816,4.371755
-0.047884032130241394,9.749189376831055,0.5746083855628967,-0.02130528911948204,-0.10546118021011353,-0.0884169489145279,4.376766
-0.047884032130241394,9.718064308166504,0.5937620401382446,-0.001065264455974102,-0.1065264418721199,-0.0884169489145279,4.381763
-0.05506663769483566,9.730035781860352,0.6248866319656372,0.01810949482023716,-0.10439591109752655,-0.09480853378772736,4.386761
-0.090979665517807,9.691728591918945,0.6224924325942993,0.03941478207707405,-0.10120011866092682,-0.10013485699892044,4.391761
-0.11971008777618408,9.739612579345703,0.5267243981361389,0.05752427875995636,-0.10120011866092682,-0.10120011866092682,4.396764
-0.1149216815829277,9.418789863586426,0.4884171485900879,0.06604639440774918,-0.1065264418721199,-0.092678003013134,4.401766
-0.009576806798577309,9.576807022094727,0.5219359993934631,0.07669904083013535,-0.11078750342130661,-0.07669904083013535,4.406766
-0.0071826050989329815,9.488221168518066,0.507570743560791,0.08735167980194092,-0.11291802674531937,-0.08735167980194092,4.411773
-0.06464344263076782,9.44752025604248,0.42856210470199585,0.09374327212572098,-0.11291802674531937,-0.092678003013134,4.416769
-0.047884032130241394,9.373299598693848,0.3064578175544739,0.10120011866092682,-0.1161138191819191,-0.09054747968912125,4.421768
-0.040701430290937424,9.373299598693848,0.2801215946674347,0.10439591109752655,-0.12463593482971191,-0.08628641813993454,4.426769
-0.08619125932455063,9.411606788635254,0.38067805767059326,0.09906959533691406,-0.12889699637889862,-0.08948221057653427,4.431775
-0.12928688526153564,9.375694274902344,0.4213795065879822,0.09480853378772736,-0.12783172726631165,-0.09374327212572098,4.436772
-0.15801730751991272,9.308655738830566,0.3423708379268646,0.09480853378772736,-0.1257012039422989,-0.09800432622432709,4.441779
-0.22744916379451752,9.308655738830566,0.28969839215278625,0.08202536404132843,-0.12889699637889862,-0.10013485699892044,4.446779
-0.2801215946674347,9.255983352661133,0.30885201692581177,0.07030745595693588,-0.13315805792808533,-0.10333064943552017,4.451777
-0.3471592366695404,9.217676162719727,0.31364041566848755,0.06604639440774918,-0.13528858125209808,-0.1065264418721199,4.456776
-0.3758896589279175,9.20091724395752,0.31603461503982544,0.05645901337265968,-0.13635385036468506,-0.10759170353412628,4.461776
-0.4165911078453064,9.198522567749023,0.3064578175544739,0.041545312851667404,-0.1395496428012848,-0.11078750342130661,4.466782
-0.4668693244457245,9.217676162719727,0.3208230137825012,0.027696875855326653,-0.13741910457611084,-0.11291802674531937,4.47178
-0.5315127968788147,9.2033109664917,0.3064578175544739,0.015978965908288956,-0.13635385036468506,-0.11504855751991272,4.476789
-0.5554547905921936,9.198522567749023,0.3016694188117981,0.008522115647792816,-0.13741910457611084,-0.11078750342130661,4.481787
-0.5889736413955688,9.210494041442871,0.35434186458587646,-0.001065264455974102,-0.1395496428012848,-0.10972223430871964,4.486785
-0.5722141861915588,9.188945770263672,0.3064578175544739,-0.008522115647792816,-0.13741910457611084,-0.11078750342130661,4.491783
-0.5602431893348694,9.160215377807617,0.2753331959247589,-0.011717909015715122,-0.14061491191387177,-0.1065264418721199,4.496786
-0.5291185975074768,9.157821655273438,0.272938996553421,-0.01810949482023716,-0.14594122767448425,-0.10120011866092682,4.501789
-0.5003881454467773,9.188945770263672,0.304063618183136,-0.02556634694337845,-0.1533980816602707,-0.09800432622432709,4.506788
-0.4812345504760742,9.227252960205078,0.33039984107017517,-0.02876213937997818,-0.1576591283082962,-0.09374327212572098,4.511796
-0.4812345504760742,9.241618156433105,0.33758243918418884,-0.03621898964047432,-0.1619201898574829,-0.092678003013134,4.516792
-0.4692635238170624,9.282320022583008,0.35913026332855225,-0.044741105288267136,-0.16831177473068237,-0.08948221057653427,4.521791
-0.40940847992897034,9.315838813781738,0.33758243918418884,-0.04687163606286049,-0.17470335960388184,-0.08522115647792816,4.526791
-0.38067805767059326,9.35654067993164,0.3208230137825012,-0.05326322093605995,-0.18002969026565552,-0.08309062570333481,4.5318
-0.31603461503982544,9.402029991149902,0.36152446269989014,-0.06178533658385277,-0.18429075181484222,-0.07989483326673508,4.536795
-0.2944868206977844,9.433155059814453,0.42616790533065796,-0.07030745595693588,-0.18429075181484222,-0.0788295641541481,4.541803
-0.28730419278144836,9.469067573547363,0.45250412821769714,-0.07456851005554199,-0.17896442115306854,-0.07669904083013535,4.546802
-0.2513911724090576,9.485827445983887,0.4836287498474121,-0.08096009492874146,-0.17363810539245605,-0.07456851005554199,4.5518
-0.22744916379451752,9.533711433410645,0.586579442024231,-0.0884169489145279,-0.1672465205192566,-0.07350324839353561,4.556798
-0.19153612852096558,9.586383819580078,0.6607996821403503,-0.09693906456232071,-0.15978966653347015,-0.07350324839353561,4.561799
-0.17238251864910126,9.636661529541016,0.7326257228851318,-0.10333064943552017,-0.15126754343509674,-0.07350324839353561,4.566806
-0.181959331035614,9.708487510681152,0.8403648138046265,-0.11185276508331299,-0.14274543523788452,-0.07350324839353561,4.571803
-0.1628057211637497,9.825803756713867,0.9385270476341248,-0.1203748807311058,-0.13102751970291138,-0.07350324839353561,4.576818
-0.16998831927776337,9.830592155456543,0.9648633003234863,-0.12676647305488586,-0.11717908829450607,-0.07563377171754837,4.581811
-0.21787235140800476,9.907206535339355,1.0821791887283325,-0.13528858125209808,-0.1065264418721199,-0.07669904083013535,4.586809
-0.2561795711517334,10.010157585144043,1.1444283723831177,-0.14487595856189728,-0.09374327212572098,-0.07776430249214172,4.591808
-0.272938996553421,10.067618370056152,1.139639973640442,-0.14594122767448425,-0.07669904083013535,-0.08096009492874146,4.596812
-0.2992752194404602,10.11789608001709,1.1516109704971313,-0.14913702011108398,-0.0649811327457428,-0.08415588736534119,4.601815
-0.304063618183136,10.189722061157227,1.1755530834197998,-0.14913702011108398,-0.05432848632335663,-0.08522115647792816,4.606821
-0.3687070608139038,10.199298858642578,1.170764684677124,-0.14700649678707123,-0.044741105288267136,-0.08628641813993454,4.611822
-0.45250412821769714,10.1753568649292,1.0797849893569946,-0.14168016612529755,-0.034088462591171265,-0.08628641813993454,4.616814
-0.48602294921875,10.086771965026855,1.0079588890075684,-0.13209278881549835,-0.02556634694337845,-0.08309062570333481,4.621814
-0.4692635238170624,10.055646896362305,0.9768342971801758,-0.12250541150569916,-0.01810949482023716,-0.07563377171754837,4.626815
-0.5363011956214905,10.014945983886719,0.8858546018600464,-0.11291802674531937,-0.009587380103766918,-0.07030745595693588,4.631821
-0.5770025849342346,9.938331604003906,0.7326257228851318,-0.09480853378772736,-0.003195793367922306,-0.06285060197114944,4.63682
-0.586579442024231,9.883264541625977,0.6727706789970398,-0.0788295641541481,0.001065264455974102,-0.05432848632335663,4.641826
-0.608127236366272,9.80904483795166,0.5889736413955688,-0.06391586363315582,0.002130528911948204,-0.04261057823896408,4.646825
-0.608127236366272,9.744400978088379,0.4596867263317108,-0.05006742849946022,0.003195793367922306,-0.030892668291926384,4.651822
-0.6488286852836609,9.667786598205566,0.40222588181495667,-0.03621898964047432,0.004261057823896408,-0.019174760207533836,4.656821
-0.6847416758537292,9.579200744628906,0.28730419278144836,-0.02556634694337845,0.004261057823896408,-0.006391586735844612,4.661824
-0.6943184733390808,9.557653427124023,0.27054479718208313,-0.019174760207533836,0.00532632227987051,0.003195793367922306,4.666829
-0.646434485912323,9.454702377319336,0.11013327538967133,-0.011717909015715122,0.011717909015715122,0.01065264455974102,4.671825
-0.6368576288223267,9.334992408752441,-0.043095629662275314,-0.002130528911948204,0.008522115647792816,0.027696875855326653,4.676835
-0.5889736413955688,9.397241592407227,-0.07182604819536209,0.0,0.003195793367922306,0.04367583990097046,4.681835
-0.6057330369949341,9.452308654785156,-0.05267243832349777,-0.002130528911948204,0.002130528911948204,0.049002163112163544,4.68683
-0.5793967843055725,9.404424667358398,-0.05506663769483566,-0.002130528911948204,0.006391586735844612,0.0511326938867569,4.69183
-0.5530605912208557,9.351752281188965,-0.10534487664699554,-0.001065264455974102,0.009587380103766918,0.055393751710653305,4.696834
-0.5386953949928284,9.375694274902344,-0.08379705995321274,-0.002130528911948204,0.009587380103766918,0.05965480953454971,4.701836
-0.5434837937355042,9.44752025604248,-0.047884032130241394,-0.003195793367922306,0.011717909015715122,0.06072007119655609,4.706843
-0.5171475410461426,9.41639518737793,0.0071826050989329815,-0.00532632227987051,0.01810949482023716,0.05432848632335663,4.711843
-0.47884035110473633,9.44752025604248,-0.009576806798577309,-0.01065264455974102,0.027696875855326653,0.0511326938867569,4.716838
-0.4692635238170624,9.490615844726562,0.004788403399288654,-0.017044231295585632,0.03195793181657791,0.052197955548763275,4.721838
-0.47165772318840027,9.5624418258667,0.014365210197865963,-0.022370552644133568,0.034088462591171265,0.052197955548763275,4.726839
-0.45250412821769714,9.57201862335205,-0.043095629662275314,-0.024501081556081772,0.03834952041506767,0.04687163606286049,4.731845
-0.4381389021873474,9.548076629638672,-0.05027823522686958,-0.027696875855326653,0.03834952041506767,0.04367583990097046,4.736842
-0.4429273009300232,9.567230224609375,-0.019153613597154617,-0.034088462591171265,0.04367583990097046,0.03941478207707405,4.741849
-0.4429273009300232,9.610325813293457,-0.035913024097681046,-0.03515372797846794,0.05006742849946022,0.03302319720387459,4.746849
-0.42616790533065796,9.588777542114258,-0.06464344263076782,-0.03302319720387459,0.05432848632335663,0.029827404767274857,4.751846
-0.4357447028160095,9.5624418258667,-0.09816227108240128,-0.03515372797846794,0.05645901337265968,0.026631610468029976,4.756845
-0.4381389021873474,9.524134635925293,-0.08619125932455063,-0.03621898964047432,0.05645901337265968,0.02130528911948204,4.761846
-0.4357447028160095,9.531316757202148,-0.12928688526153564,-0.03621898964047432,0.05752427875995636,0.01810949482023716,4.766852
-0.40940847992897034,9.550470352172852,-0.16519992053508759,-0.03941478207707405,0.05645901337265968,0.017044231295585632,4.771848
-0.3902548849582672,9.502586364746094,-0.23702596127986908,-0.03941478207707405,0.05326322093605995,0.013848437927663326,4.77686
-0.42616790533065796,9.557653427124023,-0.1364694982767105,-0.04048004746437073,0.05006742849946022,0.012783173471689224,4.781856
-0.4118026793003082,9.600749015808105,-0.026336219161748886,-0.03941478207707405,0.04793689772486687,0.011717909015715122,4.786854
-0.3495534360408783,9.677363395690918,-0.05746084079146385,-0.04048004746437073,0.0511326938867569,0.009587380103766918,4.791853
-0.3998316824436188,9.617507934570312,0.08140286058187485,-0.03941478207707405,0.04793689772486687,0.00532632227987051,4.796856
-0.45250412821769714,9.593565940856934,0.08619125932455063,-0.03515372797846794,0.044741105288267136,0.004261057823896408,4.801859
-0.5267243981361389,9.706093788146973,0.009576806798577309,-0.03302319720387459,0.04048004746437073,0.011717909015715122,4.806871
-0.5961562395095825,9.782708168029785,0.17238251864910126,-0.027696875855326653,0.03302319720387459,0.01810949482023716,4.811866
-0.5722141861915588,9.854534149169922,0.28969839215278625,-0.017044231295585632,0.02556634694337845,0.024501081556081772,4.816861
-0.5147533416748047,9.976638793945312,0.21308395266532898,-0.008522115647792816,0.024501081556081772,0.029827404767274857,4.821861
-0.4381389021873474,10.072406768798828,0.28969839215278625,-0.002130528911948204,0.024501081556081772,0.030892668291926384,4.826861
-0.4118026793003082,10.089165687561035,0.40462008118629456,0.012783173471689224,0.027696875855326653,0.034088462591171265,4.831868
-0.44532153010368347,10.24239444732666,0.5530605912208557,0.015978965908288956,0.030892668291926384,0.03621898964047432,4.836865
-0.3902548849582672,10.266336441040039,0.6033388376235962,0.023435818031430244,0.03941478207707405,0.034088462591171265,4.841873
-0.2968810200691223,10.201693534851074,0.6488286852836609,0.052197955548763275,0.049002163112163544,0.034088462591171265,4.846872
-0.33997663855552673,10.127472877502441,0.6823474764823914,0.07137271761894226,0.0511326938867569,0.03515372797846794,4.851869
-0.38067805767059326,10.287884712219238,0.667982280254364,0.08096009492874146,0.05645901337265968,0.034088462591171265,4.856868
-0.33758243918418884,10.256759643554688,0.7015010714530945,0.1022653877735138,0.0649811327457428,0.034088462591171265,4.861869
-0.2585737705230713,10.24000072479248,0.6751648783683777,0.12889699637889862,0.07350324839353561,0.03515372797846794,4.866875
-0.2346317619085312,10.249577522277832,0.646434485912323,0.1438107043504715,0.07456851005554199,0.03834952041506767,4.871873
-0.21787235140800476,10.204087257385254,0.5506663918495178,0.15446333587169647,0.08628641813993454,0.03621898964047432,4.876883
-0.2825157940387726,10.089165687561035,0.45489832758903503,0.16831177473068237,0.09906959533691406,0.03302319720387459,4.881878
-0.33518823981285095,10.036493301391602,0.3758896589279175,0.1715075671672821,0.1065264418721199,0.03621898964047432,4.886876
-0.3447650372982025,10.02452278137207,0.31364041566848755,0.17257283627986908,0.10972223430871964,0.04048004746437073,4.891876
-0.3663128614425659,9.974244117736816,0.33039984107017517,0.1810949593782425,0.1161138191819191,0.04261057823896408,4.89688
-0.33039984107017517,9.892841339111328,0.16998831927776337,0.18216021358966827,0.12676647305488586,0.041545312851667404,4.901883
-0.29209262132644653,9.823410034179688,0.05506663769483566,0.17789915204048157,0.13315805792808533,0.044741105288267136,4.906881
-0.28730419278144836,9.785101890563965,0.023942016065120697,0.1757686287164688,0.1342233121395111,0.04687163606286049,4.911889
-0.30885201692581177,9.710882186889648,0.021547814831137657,0.1715075671672821,0.13315805792808533,0.052197955548763275,4.916884
-0.35673606395721436,9.708487510681152,-0.011971008032560349,0.16937704384326935,0.13209278881549835,0.055393751710653305,4.921883
-0.35673606395721436,9.708487510681152,0.0,0.1715075671672821,0.1342233121395111,0.05645901337265968,4.926884
-0.3758896589279175,9.727641105651855,-0.026336219161748886,0.1715075671672821,0.13848437368869781,0.05965480953454971,4.931892
-0.4213795065879822,9.739612579345703,-0.07661445438861847,0.16937704384326935,0.13741910457611084,0.06178533658385277,4.93689
-0.4405331015586853,9.77791976928711,-0.06224924325942993,0.17044231295585632,0.13635385036468506,0.06391586363315582,4.941894
-0.4884171485900879,9.825803756713867,-0.033518824726343155,0.1715075671672821,0.1342233121395111,0.06817692518234253,4.946895
-0.5195417404174805,9.80904483795166,-0.019153613597154617,0.17044231295585632,0.13209278881549835,0.06924218684434891,4.951892
-0.545877993106842,9.861717224121094,-0.028730420395731926,0.16937704384326935,0.13315805792808533,0.07456851005554199,4.956891
-0.5985504388809204,9.907206535339355,-0.033518824726343155,0.16618125140666962,0.1342233121395111,0.07563377171754837,4.961893
-0.6655880808830261,9.876082420349121,-0.031124621629714966,0.16618125140666962,0.13528858125209808,0.07563377171754837,4.966899
-0.6967126727104187,9.86650562286377,0.021547814831137657,0.16511598229408264,0.13315805792808533,0.07669904083013535,4.971895
-0.6919242739677429,9.8784761428833,0.07182604819536209,0.16618125140666962,0.13209278881549835,0.07776430249214172,4.976906
-0.6607996821403503,9.84495735168457,0.06464344263076782,0.16831177473068237,0.13848437368869781,0.07669904083013535,4.981901
-0.6775590777397156,9.835380554199219,0.031124621629714966,0.16618125140666962,0.14594122767448425,0.07669904083013535,4.986899
-0.6775590777397156,9.847352027893066,0.05506663769483566,0.16511598229408264,0.14700649678707123,0.08096009492874146,4.991901
-0.6416460275650024,9.86650562286377,0.07661445438861847,0.16298545897006989,0.148071750998497,0.08096009492874146,4.996905
-0.6033388376235962,9.895236015319824,0.1412578970193863,0.1533980816602707,0.148071750998497,0.0788295641541481,5.001906
-0.5626373887062073,9.962273597717285,0.13407529890537262,0.14274543523788452,0.15126754343509674,0.07669904083013535,5.006907
-0.5482721924781799,10.007762908935547,0.07661445438861847,0.13315805792808533,0.15552860498428345,0.07030745595693588,5.011912
-0.5506663918495178,10.031704902648926,0.05027823522686958,0.12250541150569916,0.15552860498428345,0.06391586363315582,5.016908
-0.545877993106842,10.06043529510498,0.011971008032560349,0.10759170353412628,0.15233281254768372,0.05752427875995636,5.021908
-0.5195417404174805,10.098742485046387,-0.014365210197865963,0.09161274135112762,0.15020228922367096,0.05432848632335663,5.026908
-0.507570743560791,10.137049674987793,-0.004788403399288654,0.07030745595693588,0.15020228922367096,0.04793689772486687,5.031916
-0.49320554733276367,10.204087257385254,0.06464344263076782,0.05326322093605995,0.15233281254768372,0.04367583990097046,5.036912
-0.5219359993934631,10.295066833496094,0.07182604819536209,0.03302319720387459,0.15659387409687042,0.03834952041506767,5.041918
-0.5363011956214905,10.302249908447266,0.10534487664699554,0.017044231295585632,0.15872439742088318,0.03195793181657791,5.046918
-0.5530605912208557,10.319009780883789,0.16519992053508759,0.001065264455974102,0.16298545897006989,0.022370552644133568,5.051916
-0.569819986820221,10.335768699645996,0.2585737705230713,-0.009587380103766918,0.16618125140666962,0.017044231295585632,5.056915
-0.5554547905921936,10.29746150970459,0.3256114423274994,-0.017044231295585632,0.1715075671672821,0.008522115647792816,5.061916
-0.5339069962501526,10.268731117248535,0.37828385829925537,-0.020240023732185364,0.17896442115306854,0.003195793367922306,5.066921
-0.5051765441894531,10.283096313476562,0.4668693244457245,-0.024501081556081772,0.18322548270225525,0.003195793367922306,5.071918
-0.5602431893348694,10.259154319763184,0.5315127968788147,-0.02876213937997818,0.18855179846286774,0.007456851191818714,5.076931
-0.6416460275650024,10.24000072479248,0.6177040338516235,-0.02556634694337845,0.19281286001205444,0.011717909015715122,5.081926
-0.6512228846549988,10.1753568649292,0.6727706789970398,-0.014913702383637428,0.19387812912464142,0.013848437927663326,5.086923
-0.6751648783683777,10.144232749938965,0.7038952708244324,-0.009587380103766918,0.19174759089946747,0.015978965908288956,5.091923
-0.7350199222564697,10.137049674987793,0.7757213711738586,0.002130528911948204,0.1896170675754547,0.020240023732185364,5.096928
-0.7469909191131592,10.06043529510498,0.8044517636299133,0.020240023732185364,0.1896170675754547,0.023435818031430244,5.10193
-0.730231523513794,10.002974510192871,0.7493851184844971,0.03621898964047432,0.19174759089946747,0.02556634694337845,5.106928
-0.727837324142456,9.974244117736816,0.7637503147125244,0.05326322093605995,0.19281286001205444,0.030892668291926384,5.111936
-0.7541735172271729,9.921571731567383,0.7805097699165344,0.06817692518234253,0.19281286001205444,0.037284255027770996,5.116931
-0.7613561153411865,9.86650562286377,0.706289529800415,0.07989483326673508,0.1949433833360672,0.04367583990097046,5.121931
-0.7709329724311829,9.801861763000488,0.629675030708313,0.09480853378772736,0.1949433833360672,0.049002163112163544,5.126931
-0.7781155705451965,9.825803756713867,0.6177040338516235,0.1065264418721199,0.19387812912464142,0.05645901337265968,5.131939
-0.7709329724311829,9.785101890563965,0.667982280254364,0.11398329585790634,0.1949433833360672,0.06285060197114944,5.136935
-0.7565677165985107,9.742006301879883,0.6129156351089478,0.12463593482971191,0.19707392156124115,0.06817692518234253,5.141941
-0.7445967197418213,9.732429504394531,0.5339069962501526,0.12889699637889862,0.2034655064344406,0.07456851005554199,5.146942
-0.7206547260284424,9.72285270690918,0.4812345504760742,0.12889699637889862,0.20985709130764008,0.07776430249214172,5.151939
-0.7086837291717529,9.672574996948242,0.4668693244457245,0.1257012039422989,0.2173139452934265,0.07989483326673508,5.156938
-0.6799532771110535,9.641449928283691,0.45489832758903503,0.12250541150569916,0.22796659171581268,0.08202536404132843,5.161939
-0.7134721279144287,9.655815124511719,0.3974374830722809,0.11930961906909943,0.2364886999130249,0.08309062570333481,5.166944
-0.706289529800415,9.636661529541016,0.3878606855869293,0.11185276508331299,0.24394555389881134,0.08096009492874146,5.171943
-0.7086837291717529,9.583989143371582,0.363918662071228,0.1022653877735138,0.25672873854637146,0.0788295641541481,5.176952
-0.6919242739677429,9.53849983215332,0.3687070608139038,0.09587379544973373,0.2652508318424225,0.07776430249214172,5.181948
-0.6751648783683777,9.526528358459473,0.3208230137825012,0.08948221057653427,0.2695119082927704,0.07350324839353561,5.186946
-0.6799532771110535,9.50737476348877,0.304063618183136,0.0788295641541481,0.2748382091522217,0.07137271761894226,5.191946
-0.7134721279144287,9.495404243469238,0.3758896589279175,0.06604639440774918,0.28442561626434326,0.07137271761894226,5.196952
-0.6967126727104187,9.493009567260742,0.3471592366695404,0.06178533658385277,0.29507824778556824,0.06924218684434891,5.201953
-0.727837324142456,9.445125579833984,0.2513911724090576,0.058589544147253036,0.29933929443359375,0.07030745595693588,5.206954
-0.7493851184844971,9.48343276977539,0.35673606395721436,0.052197955548763275,0.3014698326587677,0.07030745595693588,5.211959
-0.706289529800415,9.435548782348633,0.26096799969673157,0.05432848632335663,0.30466562509536743,0.07030745595693588,5.216955
-0.7182605266571045,9.339780807495117,0.021547814831137657,0.058589544147253036,0.3004045784473419,0.07243797928094864,5.221953
-0.6751648783683777,9.21288776397705,0.028730420395731926,0.055393751710653305,0.287621408700943,0.08415588736534119,5.226956
-0.6967126727104187,9.435548782348633,0.14604631066322327,0.05965480953454971,0.2737729549407959,0.09693906456232071,5.231961
-0.6488286852836609,9.394847869873047,0.0933738648891449,0.052197955548763275,0.2652508318424225,0.09161274135112762,5.236961
-0.6871358752250671,9.232041358947754,-0.17956513166427612,0.05752427875995636,0.2599245309829712,0.09480853378772736,5.241965
-0.8355764150619507,9.169792175292969,-0.14365209639072418,0.06072007119655609,0.23329290747642517,0.10865697264671326,5.246965
-0.7829039692878723,9.265560150146484,-0.028730420395731926,0.05752427875995636,0.2087918221950531,0.11504855751991272,5.251962
-0.7469909191131592,9.251194953918457,-0.08858546614646912,0.06391586363315582,0.1992044448852539,0.1203748807311058,5.256961
-0.7086837291717529,9.040505409240723,-0.2059013396501541,0.07137271761894226,0.1810949593782425,0.13102751970291138,5.261964
-0.7374141216278076,9.21288776397705,-0.038307227194309235,0.07243797928094864,0.15552860498428345,0.14913702011108398,5.266968
-0.7637503147125244,9.339780807495117,0.1843535304069519,0.06072007119655609,0.14274543523788452,0.148071750998497,5.271965
-0.7038952708244324,9.332598686218262,0.0694318488240242,0.07563377171754837,0.1395496428012848,0.14061491191387177,5.276976
-0.5913678407669067,9.114726066589355,-0.08619125932455063,0.09161274135112762,0.1257012039422989,0.14913702011108398,5.281971
-0.6057330369949341,9.311050415039062,0.16519992053508759,0.0884169489145279,0.10120011866092682,0.16298545897006989,5.28697
-0.6153098344802856,9.497797966003418,0.4141969084739685,0.07669904083013535,0.09480853378772736,0.1576591283082962,5.291971
-0.5554547905921936,9.311050415039062,0.3208230137825012,0.09161274135112762,0.10333064943552017,0.13741910457611084,5.296977
-0.5219359993934631,9.227252960205078,0.16998831927776337,0.09480853378772736,0.10546118021011353,0.13102751970291138,5.301976
-0.5027823448181152,9.263166427612305,0.181959331035614,0.08735167980194092,0.09587379544973373,0.12889699637889862,5.306974
-0.5267243981361389,9.387664794921875,0.31603461503982544,0.08309062570333481,0.09161274135112762,0.12144014239311218,5.311983
-0.5051765441894531,9.334992408752441,0.31364041566848755,0.07669904083013535,0.10013485699892044,0.10120011866092682,5.316978
-0.4836287498474121,9.32302188873291,0.15562310814857483,0.06391586363315582,0.11078750342130661,0.08522115647792816,5.321978
-0.4908113479614258,9.294290542602539,0.11971008777618408,0.041545312851667404,0.11398329585790634,0.07563377171754837,5.326978
-0.49559974670410156,9.239224433898926,0.023942016065120697,0.020240023732185364,0.1203748807311058,0.06391586363315582,5.331986
-0.5219359993934631,9.220070838928223,-0.05027823522686958,-0.00532632227987051,0.12676647305488586,0.05006742849946022,5.336981
-0.5626373887062073,9.21288776397705,-0.06464344263076782,-0.034088462591171265,0.13209278881549835,0.04261057823896408,5.341989
-0.5386953949928284,9.244012832641602,-0.06224924325942993,-0.06285060197114944,0.13848437368869781,0.03515372797846794,5.346989
-0.5506663918495178,9.258378028869629,-0.043095629662275314,-0.092678003013134,0.14487595856189728,0.02556634694337845,5.351987
-0.524330198764801,9.246406555175781,-0.08858546614646912,-0.11824434995651245,0.1533980816602707,0.014913702383637428,5.356986
-0.49320554733276367,9.23443603515625,-0.12210428714752197,-0.14061491191387177,0.15978966653347015,0.01065264455974102,5.361986
-0.47644615173339844,9.255983352661133,-0.08619125932455063,-0.16511598229408264,0.15872439742088318,0.004261057823896408,5.366991
-0.45250412821769714,9.301473617553711,-0.040701430290937424,-0.18642127513885498,0.15126754343509674,0.001065264455974102,5.371988
-0.4429273009300232,9.313444137573242,-0.05027823522686958,-0.1992044448852539,0.14274543523788452,-0.001065264455974102,5.376999
-0.4596867263317108,9.390059471130371,-0.07182604819536209,-0.21198761463165283,0.12889699637889862,-0.001065264455974102,5.381999
-0.48602294921875,9.457097053527832,-0.040701430290937424,-0.22157500684261322,0.11398329585790634,0.0,5.386993
-0.5147533416748047,9.476250648498535,-0.043095629662275314,-0.22796659171581268,0.09587379544973373,0.004261057823896408,5.391993
-0.5674257874488831,9.63187313079834,0.004788403399288654,-0.2322276383638382,0.07776430249214172,0.007456851191818714,5.396998
-0.5841852426528931,9.636661529541016,0.040701430290937424,-0.23968449234962463,0.0649811327457428,0.003195793367922306,5.401999
-0.5530605912208557,9.660603523254395,0.028730420395731926,-0.23009711503982544,0.05432848632335663,0.007456851191818714,5.406998
-0.5554547905921936,9.710882186889648,-0.009576806798577309,-0.22370553016662598,0.04048004746437073,0.017044231295585632,5.412006
-0.5147533416748047,9.742006301879883,-0.016759412363171577,-0.21944446861743927,0.023435818031430244,0.019174760207533836,5.417001
-0.4836287498474121,9.710882186889648,-0.002394201699644327,-0.20559602975845337,0.011717909015715122,0.02130528911948204,5.422001
-0.5410895943641663,9.727641105651855,0.05506663769483566,-0.19387812912464142,0.002130528911948204,0.02130528911948204,5.427001
-0.5793967843055725,9.744400978088379,0.06224924325942993,-0.1810949593782425,-0.00532632227987051,0.019174760207533836,5.432009
-0.6105214357376099,9.75397777557373,0.10773907601833344,-0.15659387409687042,-0.013848437927663326,0.01810949482023716,5.437006
-0.5602431893348694,9.75637149810791,0.1388636976480484,-0.13528858125209808,-0.02130528911948204,0.02130528911948204,5.442013
-0.5530605912208557,9.770736694335938,0.1843535304069519,-0.11824434995651245,-0.02876213937997818,0.02130528911948204,5.447012
-0.5482721924781799,9.78989028930664,0.21787235140800476,-0.10013485699892044,-0.027696875855326653,0.020240023732185364,5.452009
-0.5578489899635315,9.794678688049316,0.17717093229293823,-0.08309062570333481,-0.024501081556081772,0.02130528911948204,5.457008
-0.5315127968788147,9.792284965515137,0.1412578970193863,-0.07456851005554199,-0.023435818031430244,0.01810949482023716,5.462009
-0.5506663918495178,9.749189376831055,0.2346317619085312,-0.06391586363315582,-0.022370552644133568,0.017044231295585632,5.467015
-0.5339069962501526,9.725247383117676,0.1843535304069519,-0.0511326938867569,-0.014913702383637428,0.014913702383637428,5.472013
-0.5482721924781799,9.725247383117676,0.11252748221158981,-0.049002163112163544,-0.009587380103766918,0.011717909015715122,5.477023
-0.5339069962501526,9.68694019317627,0.08858546614646912,-0.04687163606286049,-0.002130528911948204,0.01065264455974102,5.482019
-0.47165772318840027,9.667786598205566,0.09576806426048279,-0.044741105288267136,0.008522115647792816,0.008522115647792816,5.487016
-0.48602294921875,9.619902610778809,0.07182604819536209,-0.04793689772486687,0.017044231295585632,0.009587380103766918,5.492016
-0.49559974670410156,9.646238327026367,0.08858546614646912,-0.05432848632335663,0.027696875855326653,0.012783173471689224,5.497023
-0.5410895943641663,9.677363395690918,0.07182604819536209,-0.058589544147253036,0.03834952041506767,0.014913702383637428,5.502023
-0.5626373887062073,9.63187313079834,-0.023942016065120697,-0.06178533658385277,0.04580637067556381,0.015978965908288956,5.507023
-0.5530605912208557,9.639056205749512,-0.07900865375995636,-0.06711165606975555,0.04793689772486687,0.019174760207533836,5.51203
-0.5506663918495178,9.68694019317627,-0.12689268589019775,-0.07456851005554199,0.052197955548763275,0.023435818031430244,5.517024
-0.5602431893348694,9.703699111938477,-0.1173158809542656,-0.08309062570333481,0.052197955548763275,0.026631610468029976,5.522024
-0.5626373887062073,9.732429504394531,-0.13168109953403473,-0.09054747968912125,0.052197955548763275,0.02876213937997818,5.527025
-0.5578489899635315,9.75397777557373,-0.1628057211637497,-0.09480853378772736,0.055393751710653305,0.03302319720387459,5.532033
-0.5626373887062073,9.737217903137207,-0.20111294090747833,-0.10013485699892044,0.05432848632335663,0.03834952041506767,5.53703
-0.5770025849342346,9.768342971801758,-0.14844051003456116,-0.10013485699892044,0.0511326938867569,0.04367583990097046,5.542037
-0.6009446382522583,9.770736694335938,-0.14604631066322327,-0.09587379544973373,0.04793689772486687,0.04580637067556381,5.547035
-0.6057330369949341,9.787496566772461,-0.17238251864910126,-0.09374327212572098,0.04261057823896408,0.04793689772486687,5.552032
-0.6033388376235962,9.799467086791992,-0.24420857429504395,-0.08522115647792816,0.034088462591171265,0.052197955548763275,5.557032
-0.6320692300796509,9.854534149169922,-0.2082955539226532,-0.07989483326673508,0.024501081556081772,0.05752427875995636,5.562034
-0.6392518281936646,9.8784761428833,-0.1149216815829277,-0.07563377171754837,0.019174760207533836,0.06072007119655609,5.567039
-0.7038952708244324,9.926360130310059,-0.15562310814857483,-0.07030745595693588,0.015978965908288956,0.06391586363315582,5.572035
-0.6847416758537292,9.940725326538086,-0.2298433631658554,-0.06391586363315582,0.011717909015715122,0.0649811327457428,5.577048
-0.7015010714530945,9.947908401489258,-0.1843535304069519,-0.05965480953454971,0.007456851191818714,0.0649811327457428,5.582042
-0.7158663272857666,9.986215591430664,-0.16998831927776337,-0.05752427875995636,0.002130528911948204,0.06391586363315582,5.58704
-0.706289529800415,9.988609313964844,-0.17717093229293823,-0.0511326938867569,-0.004261057823896408,0.05752427875995636,5.592041
-0.6751648783683777,10.000580787658691,-0.1388636976480484,-0.044741105288267136,-0.007456851191818714,0.0511326938867569,5.597047
-0.6847416758537292,10.014945983886719,-0.1628057211637497,-0.03834952041506767,-0.009587380103766918,0.04367583990097046,5.602046
-0.6631938815116882,10.041281700134277,-0.16998831927776337,-0.034088462591171265,-0.011717909015715122,0.03621898964047432,5.607046
-0.689530074596405,9.998186111450195,-0.14844051003456116,-0.027696875855326653,-0.012783173471689224,0.030892668291926384,5.612053
-0.6871358752250671,10.002974510192871,-0.19871874153614044,-0.015978965908288956,-0.017044231295585632,0.022370552644133568,5.617048
-0.6631938815116882,9.976638793945312,-0.21547815203666687,-0.006391586735844612,-0.020240023732185364,0.012783173471689224,5.622048
-0.6655880808830261,9.952696800231934,-0.2561795711517334,0.001065264455974102,-0.022370552644133568,0.003195793367922306,5.627049
-0.6631938815116882,9.916783332824707,-0.2513911724090576,0.009587380103766918,-0.023435818031430244,-0.003195793367922306,5.632055
-0.6536170840263367,9.907206535339355,-0.26336219906806946,0.017044231295585632,-0.024501081556081772,-0.011717909015715122,5.637051
-0.6440402865409851,9.897629737854004,-0.2777273952960968,0.024501081556081772,-0.024501081556081772,-0.01810949482023716,5.64206
-0.6416460275650024,9.9000244140625,-0.28969839215278625,0.030892668291926384,-0.019174760207533836,-0.02876213937997818,5.647059
-0.6631938815116882,9.892841339111328,-0.31124621629714966,0.03621898964047432,-0.01810949482023716,-0.03941478207707405,5.652056
-0.6751648783683777,9.823410034179688,-0.363918662071228,0.03941478207707405,-0.01810949482023716,-0.04793689772486687,5.657055
-0.6847416758537292,9.799467086791992,-0.35673606395721436,0.03834952041506767,-0.02130528911948204,-0.05432848632335663,5.662056
-0.6991068720817566,9.77791976928711,-0.3758896589279175,0.03941478207707405,-0.022370552644133568,-0.06072007119655609,5.667062
-0.7038952708244324,9.761159896850586,-0.363918662071228,0.041545312851667404,-0.026631610468029976,-0.06604639440774918,5.672059
-0.7086837291717529,9.746794700622559,-0.3711012601852417,0.03941478207707405,-0.027696875855326653,-0.06924218684434891,5.677071
-0.7350199222564697,9.713275909423828,-0.33997663855552673,0.03621898964047432,-0.02876213937997818,-0.07350324839353561,5.682065
-0.7565677165985107,9.715670585632324,-0.33997663855552673,0.03195793181657791,-0.03195793181657791,-0.07137271761894226,5.687064
-0.7972691655158997,9.708487510681152,-0.33758243918418884,0.02556634694337845,-0.03515372797846794,-0.06817692518234253,5.692063
-0.7829039692878723,9.720458984375,-0.3064578175544739,0.023435818031430244,-0.03621898964047432,-0.06391586363315582,5.697071
-0.7972691655158997,9.792284965515137,-0.21787235140800476,0.017044231295585632,-0.034088462591171265,-0.06072007119655609,5.70207
-0.7924807667732239,9.847352027893066,-0.2346317619085312,0.01065264455974102,-0.03195793181657791,-0.06072007119655609,5.707069
-0.7781155705451965,9.86650562286377,-0.2298433631658554,0.006391586735844612,-0.03621898964047432,-0.05645901337265968,5.712077
-0.7972691655158997,9.93593692779541,-0.1604115068912506,0.00532632227987051,-0.04367583990097046,-0.052197955548763275,5.717072
-0.7996633648872375,9.955090522766113,-0.12449848651885986,0.003195793367922306,-0.04793689772486687,-0.05006742849946022,5.722071
-0.790086567401886,10.000580787658691,-0.07900865375995636,0.006391586735844612,-0.05326322093605995,-0.04687163606286049,5.727072
-0.7805097699165344,10.036493301391602,0.026336219161748886,0.01065264455974102,-0.06072007119655609,-0.04261057823896408,5.732085
-0.7709329724311829,10.108319282531738,0.0694318488240242,0.01810949482023716,-0.06285060197114944,-0.03834952041506767,5.737074
-0.7445967197418213,10.158597946166992,0.1173158809542656,0.029827404767274857,-0.06711165606975555,-0.03515372797846794,5.742084
-0.7086837291717529,10.177751541137695,0.12928688526153564,0.04261057823896408,-0.07350324839353561,-0.03195793181657791,5.747082
-0.6799532771110535,10.216058731079102,0.17956513166427612,0.05645901337265968,-0.08096009492874146,-0.027696875855326653,5.75208
-0.667982280254364,10.247182846069336,0.181959331035614,0.07243797928094864,-0.08522115647792816,-0.024501081556081772,5.757079
-0.6272808313369751,10.307038307189941,0.23942017555236816,0.09161274135112762,-0.09480853378772736,-0.026631610468029976,5.76208
-0.6200982332229614,10.326191902160645,0.2513911724090576,0.11078750342130661,-0.09800432622432709,-0.027696875855326653,5.767086
-0.5937620401382446,10.309432983398438,0.15562310814857483,0.13209278881549835,-0.10120011866092682,-0.027696875855326653,5.772083
-0.5793967843055725,10.287884712219238,0.08858546614646912,0.15126754343509674,-0.1065264418721199,-0.029827404767274857,5.777094
-0.5985504388809204,10.24239444732666,0.05506663769483566,0.16937704384326935,-0.10972223430871964,-0.03195793181657791,5.782089
-0.646434485912323,10.213664054870605,0.009576806798577309,0.18642127513885498,-0.11078750342130661,-0.034088462591171265,5.787087
-0.6703764796257019,10.098742485046387,-0.08140286058187485,0.1992044448852539,-0.11291802674531937,-0.03941478207707405,5.792087
-0.6703764796257019,9.96945571899414,-0.181959331035614,0.21198761463165283,-0.1161138191819191,-0.04048004746437073,5.797095
-0.6344634294509888,9.93354320526123,-0.21547815203666687,0.21518340706825256,-0.11824434995651245,-0.037284255027770996,5.802095
-0.48602294921875,9.861717224121094,-0.28730419278144836,0.2087918221950531,-0.12250541150569916,-0.03941478207707405,5.807095
-0.40462008118629456,9.892841339111328,-0.3064578175544739,0.1992044448852539,-0.1257012039422989,-0.03834952041506767,5.812099
-0.3711012601852417,9.854534149169922,-0.29209262132644653,0.18002969026565552,-0.12676647305488586,-0.041545312851667404,5.817095
-0.3495534360408783,9.859322547912598,-0.2992752194404602,0.15659387409687042,-0.13102751970291138,-0.041545312851667404,5.822094
-0.3208230137825012,9.907206535339355,-0.2537853717803955,0.13102751970291138,-0.1395496428012848,-0.03941478207707405,5.827095
-0.2753331959247589,9.979032516479492,-0.15083470940589905,0.10333064943552017,-0.14487595856189728,-0.044741105288267136,5.832108
-0.26815059781074524,10.017339706420898,-0.040701430290937424,0.0788295641541481,-0.15020228922367096,-0.05006742849946022,5.837099
-0.23702596127986908,10.02691650390625,0.038307227194309235,0.05645901337265968,-0.15233281254768372,-0.05752427875995636,5.842106
-0.24181437492370605,10.062829971313477,0.07900865375995636,0.03621898964047432,-0.15446333587169647,-0.06391586363315582,5.847106
-0.2801215946674347,10.062829971313477,0.17477671802043915,0.014913702383637428,-0.15552860498428345,-0.06817692518234253,5.852103
-0.2968810200691223,10.070012092590332,0.23702596127986908,-0.002130528911948204,-0.1533980816602707,-0.07563377171754837,5.857102
-0.31364041566848755,10.074800491333008,0.26575639843940735,-0.017044231295585632,-0.148071750998497,-0.08415588736534119,5.862105
-0.33758243918418884,10.08198356628418,0.2992752194404602,-0.03302319720387459,-0.14913702011108398,-0.09054747968912125,5.867109
-0.37828385829925537,10.091560363769531,0.31124621629714966,-0.049002163112163544,-0.14700649678707123,-0.09587379544973373,5.872106
-0.4381389021873474,10.08198356628418,0.3495534360408783,-0.0649811327457428,-0.1438107043504715,-0.09800432622432709,5.877119
-0.47405192255973816,10.101137161254883,0.3519476354122162,-0.0788295641541481,-0.14274543523788452,-0.10120011866092682,5.882112
-0.47644615173339844,10.132261276245117,0.3495534360408783,-0.08522115647792816,-0.14274543523788452,-0.1022653877735138,5.887111
-0.44771572947502136,10.122684478759766,0.36152446269989014,-0.092678003013134,-0.14487595856189728,-0.10013485699892044,5.892112
-0.42616790533065796,10.113107681274414,0.35673606395721436,-0.09587379544973373,-0.14700649678707123,-0.09693906456232071,5.897117
-0.3974374830722809,10.098742485046387,0.3280056416988373,-0.092678003013134,-0.14700649678707123,-0.09374327212572098,5.902117
-0.3663128614425659,10.0580415725708,0.2992752194404602,-0.09054747968912125,-0.15126754343509674,-0.08735167980194092,5.907117
-0.3064578175544739,9.99339771270752,0.3232172429561615,-0.08415588736534119,-0.15659387409687042,-0.08628641813993454,5.912123
-0.2561795711517334,9.962273597717285,0.3663128614425659,-0.07350324839353561,-0.16511598229408264,-0.08735167980194092,5.917118
-0.19871874153614044,9.952696800231934,0.35434186458587646,-0.06817692518234253,-0.17363810539245605,-0.08948221057653427,5.922118
-0.15801730751991272,9.976638793945312,0.38307225704193115,-0.05326322093605995,-0.18002969026565552,-0.08735167980194092,5.927119
-0.14604631066322327,9.952696800231934,0.33758243918418884,-0.041545312851667404,-0.18642127513885498,-0.08309062570333481,5.932124
-0.1149216815829277,9.988609313964844,0.42616790533065796,-0.037284255027770996,-0.19387812912464142,-0.08202536404132843,5.937121
-0.08858546614646912,10.019734382629395,0.40940847992897034,-0.03302319720387459,-0.20133498311042786,-0.08628641813993454,5.942131
-0.07661445438861847,9.955090522766113,0.33279404044151306,-0.024501081556081772,-0.20772656798362732,-0.08735167980194092,5.947129
-0.05267243832349777,9.952696800231934,0.3998316824436188,-0.017044231295585632,-0.2173139452934265,-0.08415588736534119,5.952128
-0.05746084079146385,9.964667320251465,0.4213795065879822,-0.017044231295585632,-0.22157500684261322,-0.08309062570333481,5.957126
-0.06464344263076782,9.983820915222168,0.45010992884635925,-0.01065264455974102,-0.22583605349063873,-0.09054747968912125,5.962127
-0.031124621629714966,9.931148529052734,0.35434186458587646,-0.002130528911948204,-0.2269013226032257,-0.09587379544973373,5.967133
-0.019153613597154617,9.86650562286377,0.3232172429561615,0.00532632227987051,-0.22903184592723846,-0.09800432622432709,5.97213
-0.05985504388809204,9.8784761428833,0.3423708379268646,0.007456851191818714,-0.23435817658901215,-0.10013485699892044,5.977142
-0.047884032130241394,9.880870819091797,0.3256114423274994,0.013848437927663326,-0.2364886999130249,-0.10759170353412628,5.982136
-0.040701430290937424,9.799467086791992,0.26575639843940735,0.020240023732185364,-0.23968449234962463,-0.1161138191819191,5.987135
-0.031124621629714966,9.763554573059082,0.272938996553421,0.024501081556081772,-0.24501082301139832,-0.11291802674531937,5.992134
-0.05027823522686958,9.775525093078613,0.2801215946674347,0.02556634694337845,-0.250337153673172,-0.11078750342130661,5.997141
-0.08619125932455063,9.75637149810791,0.29209262132644653,0.030892668291926384,-0.2514024078845978,-0.1161138191819191,6.00214
-0.09576806426048279,9.75637149810791,0.3016694188117981,0.03515372797846794,-0.2545982003211975,-0.11930961906909943,6.007142
-0.0933738648891449,9.730035781860352,0.3064578175544739,0.03515372797846794,-0.2599245309829712,-0.1203748807311058,6.012147
-0.11252748221158981,9.706093788146973,0.33039984107017517,0.03941478207707405,-0.26205503940582275,-0.1161138191819191,6.017141
-0.17238251864910126,9.677363395690918,0.3926490843296051,0.04261057823896408,-0.2652508318424225,-0.11078750342130661,6.022142
-0.2059013396501541,9.691728591918945,0.42377370595932007,0.04580637067556381,-0.26631611585617065,-0.11291802674531937,6.027142
-0.24899697303771973,9.658209800720215,0.45010992884635925,0.05432848632335663,-0.2695119082927704,-0.11398329585790634,6.032148
-0.23942017555236816,9.627084732055664,0.4668693244457245,0.06178533658385277,-0.2727077007293701,-0.11398329585790634,6.037144
-0.2968810200691223,9.583989143371582,0.48602294921875,0.06391586363315582,-0.2737729549407959,-0.11291802674531937,6.042154
-0.2992752194404602,9.526528358459473,0.5267243981361389,0.06711165606975555,-0.27590349316596985,-0.11185276508331299,6.047153
-0.35673606395721436,9.481039047241211,0.5267243981361389,0.06711165606975555,-0.2737729549407959,-0.11291802674531937,6.05215
-0.40222588181495667,9.435548782348633,0.5363011956214905,0.0649811327457428,-0.2727077007293701,-0.10865697264671326,6.057149
-0.44771572947502136,9.409213066101074,0.5195417404174805,0.06178533658385277,-0.2727077007293701,-0.10546118021011353,6.06215
-0.47165772318840027,9.397241592407227,0.5027823448181152,0.05645901337265968,-0.2695119082927704,-0.10333064943552017,6.067155
-0.4884171485900879,9.349357604980469,0.4644751250743866,0.05432848632335663,-0.2641855776309967,-0.1022653877735138,6.072156
-0.4836287498474121,9.306262016296387,0.40222588181495667,0.04793689772486687,-0.260989785194397,-0.10120011866092682,6.077164
-0.5003881454467773,9.294290542602539,0.3758896589279175,0.03834952041506767,-0.25672873854637146,-0.10013485699892044,6.082161
-0.5171475410461426,9.277531623840332,0.3423708379268646,0.03195793181657791,-0.2514024078845978,-0.09906959533691406,6.087157
-0.5267243981361389,9.248801231384277,0.2944868206977844,0.02130528911948204,-0.24501082301139832,-0.09587379544973373,6.092157
-0.5219359993934631,9.23682975769043,0.26575639843940735,0.008522115647792816,-0.23968449234962463,-0.09480853378772736,6.097164
-0.5267243981361389,9.21288776397705,0.23702596127986908,-0.004261057823896408,-0.23542344570159912,-0.09480853378772736,6.102165
-0.5363011956214905,9.181763648986816,0.24660277366638184,-0.013848437927663326,-0.23116238415241241,-0.0884169489145279,6.107167
-0.524330198764801,9.196128845214844,0.2513911724090576,-0.022370552644133568,-0.23009711503982544,-0.08522115647792816,6.112169
-0.5195417404174805,9.181763648986816,0.24660277366638184,-0.029827404767274857,-0.22796659171581268,-0.07989483326673508,6.117167
-0.4692635238170624,9.169792175292969,0.272938996553421,-0.03621898964047432,-0.22477079927921295,-0.07563377171754837,6.122164
-0.40701428055763245,9.196128845214844,0.2561795711517334,-0.04367583990097046,-0.2183792144060135,-0.07243797928094864,6.127166
-0.3902548849582672,9.232041358947754,0.2777273952960968,-0.05006742849946022,-0.2130528837442398,-0.07030745595693588,6.132171
-0.35673606395721436,9.272743225097656,0.28969839215278625,-0.06072007119655609,-0.2087918221950531,-0.06711165606975555,6.137169
-0.35673606395721436,9.337387084960938,0.3232172429561615,-0.07030745595693588,-0.20133498311042786,-0.0649811327457428,6.142178
-0.3447650372982025,9.35654067993164,0.37828385829925537,-0.07669904083013535,-0.19387812912464142,-0.06285060197114944,6.147176
-0.3687070608139038,9.385271072387695,0.4405331015586853,-0.08628641813993454,-0.18642127513885498,-0.06072007119655609,6.152173
-0.3471592366695404,9.464279174804688,0.545877993106842,-0.09693906456232071,-0.17896442115306854,-0.05965480953454971,6.157173
-0.33279404044151306,9.481039047241211,0.6272808313369751,-0.1022653877735138,-0.16831177473068237,-0.05752427875995636,6.162176
-0.3495534360408783,9.500192642211914,0.6967126727104187,-0.10546118021011353,-0.1576591283082962,-0.05432848632335663,6.16718
-0.35673606395721436,9.526528358459473,0.7589619159698486,-0.10865697264671326,-0.15233281254768372,-0.049002163112163544,6.172185
-0.3687070608139038,9.5624418258667,0.8020575642585754,-0.11078750342130661,-0.14594122767448425,-0.04580637067556381,6.177188
-0.3974374830722809,9.591172218322754,0.8475474119186401,-0.10865697264671326,-0.13741910457611084,-0.04048004746437073,6.182182
-0.3974374830722809,9.59835433959961,0.8379706144332886,-0.10865697264671326,-0.12889699637889862,-0.03834952041506767,6.18718
-0.40940847992897034,9.655815124511719,0.8547300100326538,-0.10439591109752655,-0.12144014239311218,-0.03621898964047432,6.192183
-0.3974374830722809,9.660603523254395,0.811634361743927,-0.09693906456232071,-0.11291802674531937,-0.034088462591171265,6.197188
-0.40222588181495667,9.66299819946289,0.7422025203704834,-0.08948221057653427,-0.10333064943552017,-0.03302319720387459,6.202187
-0.4141969084739685,9.653421401977539,0.6919242739677429,-0.08202536404132843,-0.09587379544973373,-0.03302319720387459,6.207191
-0.4165911078453064,9.59596061706543,0.6320692300796509,-0.07137271761894226,-0.08948221057653427,-0.03195793181657791,6.212193
-0.4357447028160095,9.5624418258667,0.5506663918495178,-0.06285060197114944,-0.08309062570333481,-0.034088462591171265,6.21719
-0.45489832758903503,9.550470352172852,0.4812345504760742,-0.05645901337265968,-0.07563377171754837,-0.03195793181657791,6.22219
-0.4572925269603729,9.550470352172852,0.4429273009300232,-0.05006742849946022,-0.07030745595693588,-0.030892668291926384,6.227189
-0.47405192255973816,9.514557838439941,0.35434186458587646,-0.04793689772486687,-0.06604639440774918,-0.03302319720387459,6.232195
-0.49559974670410156,9.509769439697266,0.2825157940387726,-0.05326322093605995,-0.058589544147253036,-0.03195793181657791,6.237192
-0.4908113479614258,9.44752025604248,0.21308395266532898,-0.058589544147253036,-0.05326322093605995,-0.03515372797846794,6.242203
-0.5171475410461426,9.459490776062012,0.16759411990642548,-0.06178533658385277,-0.049002163112163544,-0.034088462591171265,6.2472
-0.5722141861915588,9.48343276977539,0.13407529890537262,-0.06711165606975555,-0.04367583990097046,-0.03302319720387459,6.252199
-0.5817909836769104,9.442731857299805,0.13407529890537262,-0.06924218684434891,-0.037284255027770996,-0.034088462591171265,6.257196
-0.608127236366272,9.44752025604248,0.19871874153614044,-0.07243797928094864,-0.034088462591171265,-0.03302319720387459,6.262197
-0.6272808313369751,9.495404243469238,0.17956513166427612,-0.07669904083013535,-0.02876213937997818,-0.034088462591171265,6.267204
-0.6320692300796509,9.366117477416992,0.17717093229293823,-0.07989483326673508,-0.026631610468029976,-0.03621898964047432,6.272219
-0.6200982332229614,9.373299598693848,0.1364694982767105,-0.08735167980194092,-0.023435818031430244,-0.026631610468029976,6.277211
-0.6368576288223267,9.390059471130371,0.08858546614646912,-0.08735167980194092,-0.029827404767274857,-0.024501081556081772,6.282206
-0.6057330369949341,9.370905876159668,0.10534487664699554,-0.08309062570333481,-0.03302319720387459,-0.023435818031430244,6.287205
-0.5506663918495178,9.390059471130371,0.13168109953403473,-0.08096009492874146,-0.034088462591171265,-0.02130528911948204,6.292205
-0.5147533416748047,9.390059471130371,0.1604115068912506,-0.07989483326673508,-0.037284255027770996,-0.019174760207533836,6.297222
-0.4884171485900879,9.39245319366455,0.13407529890537262,-0.07989483326673508,-0.03834952041506767,-0.015978965908288956,6.30221
-0.49320554733276367,9.394847869873047,0.1388636976480484,-0.0788295641541481,-0.03941478207707405,-0.011717909015715122,6.307215
-0.5147533416748047,9.445125579833984,0.22505496442317963,-0.07669904083013535,-0.04261057823896408,-0.008522115647792816,6.312217
-0.5027823448181152,9.485827445983887,0.272938996553421,-0.07350324839353561,-0.03834952041506767,-0.007456851191818714,6.317214
-0.5195417404174805,9.490615844726562,0.21547815203666687,-0.06604639440774918,-0.03941478207707405,-0.006391586735844612,6.322212
-0.5386953949928284,9.50737476348877,0.304063618183136,-0.06817692518234253,-0.03834952041506767,-0.007456851191818714,6.327213
-0.5219359993934631,9.579200744628906,0.4141969084739685,-0.06817692518234253,-0.03195793181657791,-0.008522115647792816,6.332219
-0.5339069962501526,9.672574996948242,0.3998316824436188,-0.06604639440774918,-0.02556634694337845,-0.01065264455974102,6.337215
-0.5291185975074768,9.720458984375,0.3687070608139038,-0.0649811327457428,-0.01810949482023716,-0.012783173471689224,6.342226
-0.5219359993934631,9.708487510681152,0.4118026793003082,-0.06604639440774918,-0.014913702383637428,-0.015978965908288956,6.347224
-0.5123591423034668,9.708487510681152,0.363918662071228,-0.06391586363315582,-0.011717909015715122,-0.019174760207533836,6.352221
-0.507570743560791,9.727641105651855,0.3232172429561615,-0.06391586363315582,-0.007456851191818714,-0.022370552644133568,6.35722
-0.4668693244457245,9.739612579345703,0.29209262132644653,-0.06391586363315582,-0.00532632227987051,-0.023435818031430244,6.362221
-0.4165911078453064,9.77791976928711,0.2753331959247589,-0.06391586363315582,-0.001065264455974102,-0.024501081556081772,6.367228
-0.38067805767059326,9.770736694335938,0.2825157940387726,-0.06391586363315582,0.002130528911948204,-0.02876213937997818,6.372226
-0.3758896589279175,9.806650161743164,0.2298433631658554,-0.06604639440774918,0.00532632227987051,-0.03302319720387459,6.377235
-0.3519476354122162,9.813833236694336,0.21787235140800476,-0.06604639440774918,0.009587380103766918,-0.03621898964047432,6.382229
-0.31124621629714966,9.849745750427246,0.22505496442317963,-0.06391586363315582,0.012783173471689224,-0.03941478207707405,6.387228
-0.3064578175544739,9.847352027893066,0.2106897532939911,-0.06072007119655609,0.017044231295585632,-0.04261057823896408,6.392228
-0.24420857429504395,9.880870819091797,0.2059013396501541,-0.05752427875995636,0.019174760207533836,-0.04687163606286049,6.397243
-0.22505496442317963,9.883264541625977,0.20111294090747833,-0.0511326938867569,0.022370552644133568,-0.05326322093605995,6.402233
-0.22744916379451752,9.895236015319824,0.21547815203666687,-0.04580637067556381,0.024501081556081772,-0.05965480953454971,6.407238
-0.2322375625371933,9.883264541625977,0.22026655077934265,-0.03621898964047432,0.026631610468029976,-0.06391586363315582,6.41224
-0.2753331959247589,9.86650562286377,0.21308395266532898,-0.024501081556081772,0.02876213937997818,-0.06817692518234253,6.417236
-0.2585737705230713,9.847352027893066,0.19153612852096558,-0.01810949482023716,0.03302319720387459,-0.06817692518234253,6.422235
-0.31124621629714966,9.873687744140625,0.14844051003456116,-0.009587380103766918,0.034088462591171265,-0.07030745595693588,6.427237
-0.33758243918418884,9.861717224121094,0.09816227108240128,0.001065264455974102,0.03621898964047432,-0.07243797928094864,6.432244
-0.3280056416988373,9.818621635437012,0.06703764945268631,0.011717909015715122,0.03941478207707405,-0.07243797928094864,6.43724
-0.38546648621559143,9.782708168029785,-0.009576806798577309,0.020240023732185364,0.04261057823896408,-0.07030745595693588,6.442248
-0.42377370595932007,9.744400978088379,-0.05267243832349777,0.027696875855326653,0.04687163606286049,-0.06924218684434891,6.447248
-0.4118026793003082,9.737217903137207,-0.05985504388809204,0.030892668291926384,0.0511326938867569,-0.0649811327457428,6.452245
-0.4213795065879822,9.713275909423828,-0.08619125932455063,0.034088462591171265,0.05432848632335663,-0.06178533658385277,6.457244
-0.4596867263317108,9.68694019317627,-0.15801730751991272,0.03302319720387459,0.05965480953454971,-0.05965480953454971,6.462246
-0.47405192255973816,9.639056205749512,-0.20111294090747833,0.029827404767274857,0.06178533658385277,-0.0511326938867569,6.467251
-0.45250412821769714,9.653421401977539,-0.21308395266532898,0.027696875855326653,0.06391586363315582,-0.04367583990097046,6.472248
-0.47884035110473633,9.643844604492188,-0.21787235140800476,0.029827404767274857,0.0649811327457428,-0.03515372797846794,6.477259
-0.49320554733276367,9.643844604492188,-0.21787235140800476,0.026631610468029976,0.06711165606975555,-0.029827404767274857,6.482253
-0.4572925269603729,9.639056205749512,-0.19632454216480255,0.026631610468029976,0.07030745595693588,-0.022370552644133568,6.487251
-0.49320554733276367,9.615114212036133,-0.1412578970193863,0.029827404767274857,0.07030745595693588,-0.01810949482023716,6.492253
-0.49320554733276367,9.636661529541016,-0.2322375625371933,0.02876213937997818,0.07030745595693588,-0.011717909015715122,6.497257
-0.47405192255973816,9.66299819946289,-0.19871874153614044,0.02556634694337845,0.06711165606975555,-0.00532632227987051,6.502256
-0.4596867263317108,9.715670585632324,-0.2346317619085312,0.023435818031430244,0.06924218684434891,-0.004261057823896408,6.507264
