ax,ay,az,gx,gy,gz,timestamp
0.3519476354122162,9.75397777557373,0.5985504388809204,0.023435818031430244,-0.006391586735844612,0.002130528911948204,1.904226
0.3447650372982025,9.751583099365234,0.5530605912208557,0.026631610468029976,-0.007456851191818714,0.001065264455974102,1.909227
0.3519476354122162,9.72285270690918,0.5506663918495178,0.02556634694337845,-0.006391586735844612,0.001065264455974102,1.914229
0.35913026332855225,9.744400978088379,0.5482721924781799,0.02556634694337845,-0.007456851191818714,-0.001065264455974102,1.91923
0.3423708379268646,9.718064308166504,0.5219359993934631,0.023435818031430244,-0.00532632227987051,-0.002130528911948204,1.924231
0.31842881441116333,9.660603523254395,0.5099649429321289,0.023435818031430244,-0.003195793367922306,-0.001065264455974102,1.929245
0.2992752194404602,9.624691009521484,0.5051765441894531,0.02130528911948204,-0.002130528911948204,0.001065264455974102,1.93424
0.27054479718208313,9.615114212036133,0.47405192255973816,0.017044231295585632,0.0,0.0,1.939236
0.2753331959247589,9.624691009521484,0.507570743560791,0.013848437927663326,0.0,0.0,1.944237
0.2753331959247589,9.627084732055664,0.47644615173339844,0.012783173471689224,-0.001065264455974102,0.004261057823896408,1.949239
0.26336219906806946,9.62947940826416,0.49320554733276367,0.013848437927663326,-0.003195793367922306,0.004261057823896408,1.95424
0.26815059781074524,9.588777542114258,0.4884171485900879,0.011717909015715122,-0.00532632227987051,0.00532632227987051,1.959241
0.26815059781074524,9.591172218322754,0.4884171485900879,0.01065264455974102,-0.007456851191818714,0.007456851191818714,1.964247
0.2849099934101105,9.617507934570312,0.48602294921875,0.007456851191818714,-0.008522115647792816,0.01065264455974102,1.969248
0.2777273952960968,9.586383819580078,0.4620809257030487,0.00532632227987051,-0.01065264455974102,0.01065264455974102,1.974248
0.2537853717803955,9.610325813293457,0.5099649429321289,0.004261057823896408,-0.012783173471689224,0.013848437927663326,1.979255
0.2585737705230713,9.63187313079834,0.5482721924781799,0.002130528911948204,-0.013848437927663326,0.012783173471689224,1.984251
0.26096799969673157,9.648633003234863,0.6033388376235962,0.002130528911948204,-0.013848437927663326,0.013848437927663326,1.98925
0.26575639843940735,9.691728591918945,0.6129156351089478,0.001065264455974102,-0.014913702383637428,0.012783173471689224,1.994253
0.2992752194404602,9.75397777557373,0.646434485912323,-0.001065264455974102,-0.013848437927663326,0.011717909015715122,1.999259
0.2968810200691223,9.768342971801758,0.646434485912323,-0.004261057823896408,-0.01065264455974102,0.011717909015715122,2.004256
0.30885201692581177,9.75637149810791,0.6560112833976746,-0.003195793367922306,-0.008522115647792816,0.007456851191818714,2.00927
0.3423708379268646,9.761159896850586,0.6919242739677429,-0.00532632227987051,-0.007456851191818714,0.00532632227987051,2.014263
0.33039984107017517,9.821015357971191,0.706289529800415,-0.006391586735844612,-0.003195793367922306,0.002130528911948204,2.01926
0.363918662071228,9.81143856048584,0.7134721279144287,-0.009587380103766918,0.002130528911948204,-0.001065264455974102,2.024261
0.3878606855869293,9.80904483795166,0.7182605266571045,-0.008522115647792816,0.008522115647792816,-0.004261057823896408,2.029261
0.36152446269989014,9.806650161743164,0.6871358752250671,-0.007456851191818714,0.011717909015715122,-0.007456851191818714,2.034267
0.35434186458587646,9.792284965515137,0.6775590777397156,-0.004261057823896408,0.011717909015715122,-0.009587380103766918,2.039264
0.3734954595565796,9.763554573059082,0.6368576288223267,-0.001065264455974102,0.012783173471689224,-0.01065264455974102,2.044273
0.4118026793003082,9.751583099365234,0.5770025849342346,0.006391586735844612,0.009587380103766918,-0.011717909015715122,2.049272
0.38546648621559143,9.751583099365234,0.5841852426528931,0.01065264455974102,0.00532632227987051,-0.017044231295585632,2.05427
0.3734954595565796,9.732429504394531,0.5482721924781799,0.012783173471689224,0.002130528911948204,-0.017044231295585632,2.05927
0.3663128614425659,9.696516990661621,0.5195417404174805,0.013848437927663326,0.001065264455974102,-0.017044231295585632,2.064289
0.35913026332855225,9.708487510681152,0.5099649429321289,0.015978965908288956,0.0,-0.014913702383637428,2.069276
0.3471592366695404,9.710882186889648,0.5219359993934631,0.012783173471689224,-0.002130528911948204,-0.011717909015715122,2.074275
0.31842881441116333,9.718064308166504,0.5291185975074768,0.009587380103766918,-0.004261057823896408,-0.01065264455974102,2.079284
0.3280056416988373,9.742006301879883,0.5099649429321289,0.008522115647792816,-0.00532632227987051,-0.01065264455974102,2.084284
0.31364041566848755,9.739612579345703,0.5267243981361389,0.00532632227987051,-0.006391586735844612,-0.013848437927663326,2.089278
0.27054479718208313,9.75637149810791,0.5123591423034668,0.0,-0.003195793367922306,-0.015978965908288956,2.094279
0.28969839215278625,9.77791976928711,0.5339069962501526,-0.002130528911948204,-0.004261057823896408,-0.014913702383637428,2.099285
0.26096799969673157,9.813833236694336,0.5482721924781799,-0.006391586735844612,-0.001065264455974102,-0.017044231295585632,2.104284
0.26575639843940735,9.825803756713867,0.5650315880775452,-0.008522115647792816,0.0,-0.01810949482023716,2.109293
0.2537853717803955,9.816226959228516,0.5554547905921936,-0.011717909015715122,0.002130528911948204,-0.01810949482023716,2.114291
0.22744916379451752,9.818621635437012,0.5841852426528931,-0.012783173471689224,0.003195793367922306,-0.02130528911948204,2.119289
0.23942017555236816,9.80904483795166,0.5817909836769104,-0.012783173471689224,0.003195793367922306,-0.023435818031430244,2.124288
0.23702596127986908,9.81143856048584,0.5674257874488831,-0.012783173471689224,0.003195793367922306,-0.022370552644133568,2.129289
0.22505496442317963,9.78989028930664,0.586579442024231,-0.01065264455974102,0.003195793367922306,-0.022370552644133568,2.134296
0.23702596127986908,9.775525093078613,0.5578489899635315,-0.007456851191818714,0.001065264455974102,-0.023435818031430244,2.139292
0.21547815203666687,9.77791976928711,0.5410895943641663,-0.003195793367922306,-0.002130528911948204,-0.023435818031430244,2.144301
0.19393034279346466,9.758766174316406,0.5386953949928284,-0.001065264455974102,-0.003195793367922306,-0.02130528911948204,2.149301
0.2322375625371933,9.694122314453125,0.5434837937355042,0.002130528911948204,-0.004261057823896408,-0.020240023732185364,2.154299
0.26096799969673157,9.682151794433594,0.5195417404174805,0.006391586735844612,-0.006391586735844612,-0.013848437927663326,2.159298
0.272938996553421,9.708487510681152,0.507570743560791,0.008522115647792816,-0.007456851191818714,-0.009587380103766918,2.164302
0.2777273952960968,9.730035781860352,0.5339069962501526,0.006391586735844612,-0.009587380103766918,-0.008522115647792816,2.169305
0.2944868206977844,9.744400978088379,0.5841852426528931,0.004261057823896408,-0.008522115647792816,-0.004261057823896408,2.174305
0.304063618183136,9.749189376831055,0.6153098344802856,0.00532632227987051,-0.008522115647792816,-0.003195793367922306,2.179313
0.2849099934101105,9.742006301879883,0.6153098344802856,0.00532632227987051,-0.007456851191818714,-0.001065264455974102,2.184308
0.26575639843940735,9.732429504394531,0.6224924325942993,0.00532632227987051,-0.00532632227987051,-0.001065264455974102,2.189306
0.2849099934101105,9.730035781860352,0.6416460275650024,0.007456851191818714,-0.004261057823896408,-0.002130528911948204,2.194307
0.29209262132644653,9.715670585632324,0.6248866319656372,0.007456851191818714,-0.003195793367922306,-0.001065264455974102,2.199313
0.2944868206977844,9.725247383117676,0.629675030708313,0.009587380103766918,0.0,-0.002130528911948204,2.204314
0.3016694188117981,9.720458984375,0.5985504388809204,0.009587380103766918,0.003195793367922306,-0.002130528911948204,2.209328
0.28730419278144836,9.691728591918945,0.5793967843055725,0.009587380103766918,0.007456851191818714,-0.003195793367922306,2.214319
0.2992752194404602,9.701305389404297,0.5722141861915588,0.009587380103766918,0.008522115647792816,0.0,2.219317
0.3016694188117981,9.696516990661621,0.5650315880775452,0.007456851191818714,0.01065264455974102,0.0,2.224316
0.2944868206977844,9.68933391571045,0.5578489899635315,0.006391586735844612,0.012783173471689224,0.003195793367922306,2.229317
0.2777273952960968,9.66539192199707,0.5003881454467773,0.006391586735844612,0.01065264455974102,0.004261057823896408,2.234324
0.2968810200691223,9.672574996948242,0.507570743560791,0.007456851191818714,0.007456851191818714,0.009587380103766918,2.239321
0.3016694188117981,9.68933391571045,0.507570743560791,0.00532632227987051,0.003195793367922306,0.006391586735844612,2.244328
0.3256114423274994,9.710882186889648,0.5051765441894531,0.00532632227987051,0.004261057823896408,0.007456851191818714,2.249341
0.31842881441116333,9.694122314453125,0.524330198764801,0.00532632227987051,0.003195793367922306,0.008522115647792816,2.254326
0.3256114423274994,9.706093788146973,0.5291185975074768,0.00532632227987051,0.0,0.009587380103766918,2.259326
0.28969839215278625,9.674968719482422,0.5027823448181152,0.004261057823896408,0.001065264455974102,0.006391586735844612,2.264329
0.2825157940387726,9.66299819946289,0.5363011956214905,0.004261057823896408,-0.002130528911948204,0.00532632227987051,2.269333
0.2825157940387726,9.667786598205566,0.5363011956214905,0.002130528911948204,-0.00532632227987051,0.006391586735844612,2.274332
0.2561795711517334,9.708487510681152,0.545877993106842,-0.001065264455974102,-0.007456851191818714,0.004261057823896408,2.279341
0.24181437492370605,9.72285270690918,0.6105214357376099,-0.003195793367922306,-0.008522115647792816,0.003195793367922306,2.284336
0.2298433631658554,9.715670585632324,0.608127236366272,-0.004261057823896408,-0.008522115647792816,0.001065264455974102,2.289335
0.2059013396501541,9.72285270690918,0.5913678407669067,-0.007456851191818714,-0.007456851191818714,0.002130528911948204,2.294337
0.2346317619085312,9.725247383117676,0.5793967843055725,-0.008522115647792816,-0.007456851191818714,0.001065264455974102,2.29934
0.2322375625371933,9.727641105651855,0.6033388376235962,-0.012783173471689224,-0.007456851191818714,-0.001065264455974102,2.30434
0.2777273952960968,9.732429504394531,0.6344634294509888,-0.014913702383637428,-0.00532632227987051,-0.00532632227987051,2.309359
0.31124621629714966,9.732429504394531,0.608127236366272,-0.014913702383637428,-0.00532632227987051,-0.006391586735844612,2.314347
0.304063618183136,9.720458984375,0.6057330369949341,-0.014913702383637428,-0.004261057823896408,-0.007456851191818714,2.319345
0.29209262132644653,9.701305389404297,0.5889736413955688,-0.015978965908288956,-0.002130528911948204,-0.009587380103766918,2.324345
0.28969839215278625,9.713275909423828,0.5746083855628967,-0.011717909015715122,0.0,-0.012783173471689224,2.329347
0.2585737705230713,9.684545516967773,0.5650315880775452,-0.007456851191818714,-0.002130528911948204,-0.012783173471689224,2.334352
0.2537853717803955,9.643844604492188,0.545877993106842,-0.00532632227987051,-0.003195793367922306,-0.011717909015715122,2.339348
0.2561795711517334,9.619902610778809,0.4908113479614258,-0.002130528911948204,-0.004261057823896408,-0.011717909015715122,2.344356
0.22505496442317963,9.59835433959961,0.45250412821769714,-0.004261057823896408,-0.004261057823896408,-0.008522115647792816,2.349357
0.19632454216480255,9.591172218322754,0.4429273009300232,-0.004261057823896408,-0.004261057823896408,-0.007456851191818714,2.354354
0.181959331035614,9.57441234588623,0.42856210470199585,-0.001065264455974102,-0.004261057823896408,-0.00532632227987051,2.359355
0.1628057211637497,9.557653427124023,0.38546648621559143,-0.001065264455974102,-0.008522115647792816,-0.002130528911948204,2.364356
0.14844051003456116,9.50498104095459,0.33518823981285095,0.003195793367922306,-0.011717909015715122,0.002130528911948204,2.369361
0.1604115068912506,9.509769439697266,0.2968810200691223,0.00532632227987051,-0.014913702383637428,0.004261057823896408,2.374361
0.14844051003456116,9.502586364746094,0.2753331959247589,0.007456851191818714,-0.015978965908288956,0.007456851191818714,2.379369
0.14365209639072418,9.48343276977539,0.26815059781074524,0.006391586735844612,-0.01810949482023716,0.011717909015715122,2.384365
0.14365209639072418,9.485827445983887,0.26336219906806946,0.00532632227987051,-0.019174760207533836,0.013848437927663326,2.389363
0.15083470940589905,9.481039047241211,0.27054479718208313,0.004261057823896408,-0.022370552644133568,0.013848437927663326,2.394364
0.12210428714752197,9.50498104095459,0.22505496442317963,0.002130528911948204,-0.020240023732185364,0.015978965908288956,2.399369
0.10773907601833344,9.476250648498535,0.2059013396501541,0.001065264455974102,-0.022370552644133568,0.014913702383637428,2.404368
0.11971008777618408,9.459490776062012,0.2322375625371933,-0.003195793367922306,-0.023435818031430244,0.014913702383637428,2.409374
0.181959331035614,9.445125579833984,0.22505496442317963,-0.008522115647792816,-0.023435818031430244,0.014913702383637428,2.414376
0.1867477297782898,9.461885452270508,0.2106897532939911,-0.015978965908288956,-0.019174760207533836,0.01065264455974102,2.419373
0.12210428714752197,9.50737476348877,0.24181437492370605,-0.029827404767274857,-0.015978965908288956,0.002130528911948204,2.424372
-0.009576806798577309,9.526528358459473,0.2777273952960968,-0.04580637067556381,-0.011717909015715122,-0.003195793367922306,2.429374
-0.019153613597154617,9.63187313079834,0.3064578175544739,-0.05645901337265968,-0.006391586735844612,-0.001065264455974102,2.434381
0.08858546614646912,9.677363395690918,0.3423708379268646,-0.0649811327457428,0.0,0.001065264455974102,2.439377
0.15083470940589905,9.694122314453125,0.35673606395721436,-0.07669904083013535,0.00532632227987051,-0.002130528911948204,2.444386
0.14844051003456116,9.694122314453125,0.3471592366695404,-0.08735167980194092,0.008522115647792816,-0.007456851191818714,2.449385
0.17717093229293823,9.68933391571045,0.36152446269989014,-0.09480853378772736,0.012783173471689224,-0.012783173471689224,2.454382
0.1843535304069519,9.725247383117676,0.33039984107017517,-0.1065264418721199,0.014913702383637428,-0.015978965908288956,2.459382
0.2106897532939911,9.737217903137207,0.38067805767059326,-0.11185276508331299,0.009587380103766918,-0.01810949482023716,2.464385
0.2106897532939911,9.804255485534668,0.3734954595565796,-0.11504855751991272,0.00532632227987051,-0.019174760207533836,2.469389
0.22266076505184174,9.835380554199219,0.42856210470199585,-0.11504855751991272,0.001065264455974102,-0.022370552644133568,2.474392
0.26336219906806946,9.849745750427246,0.4381389021873474,-0.11185276508331299,-0.002130528911948204,-0.02556634694337845,2.479397
0.24420857429504395,9.864110946655273,0.49559974670410156,-0.10865697264671326,-0.007456851191818714,-0.029827404767274857,2.484393
0.2561795711517334,9.86650562286377,0.4668693244457245,-0.10333064943552017,-0.011717909015715122,-0.029827404767274857,2.489391
0.26815059781074524,9.916783332824707,0.4644751250743866,-0.09800432622432709,-0.015978965908288956,-0.029827404767274857,2.494392
0.28730419278144836,9.909601211547852,0.5051765441894531,-0.0884169489145279,-0.02130528911948204,-0.03515372797846794,2.499398
0.304063618183136,9.880870819091797,0.49320554733276367,-0.07563377171754837,-0.02556634694337845,-0.03834952041506767,2.504398
0.31364041566848755,9.849745750427246,0.44771572947502136,-0.0649811327457428,-0.029827404767274857,-0.037284255027770996,2.509401
0.29209262132644653,9.86650562286377,0.4118026793003082,-0.05752427875995636,-0.030892668291926384,-0.037284255027770996,2.514404
0.3016694188117981,9.852140426635742,0.4189853072166443,-0.05006742849946022,-0.03302319720387459,-0.03621898964047432,2.519401
0.3016694188117981,9.856928825378418,0.3998316824436188,-0.04367583990097046,-0.03302319720387459,-0.03515372797846794,2.524401
0.29209262132644653,9.856928825378418,0.3495534360408783,-0.04048004746437073,-0.034088462591171265,-0.034088462591171265,2.529402
0.2777273952960968,9.8784761428833,0.38067805767059326,-0.03941478207707405,-0.037284255027770996,-0.03195793181657791,2.534409
0.2322375625371933,9.871294021606445,0.4381389021873474,-0.034088462591171265,-0.037284255027770996,-0.034088462591171265,2.539406
0.21308395266532898,9.854534149169922,0.3998316824436188,-0.030892668291926384,-0.03195793181657791,-0.034088462591171265,2.544413
0.20111294090747833,9.828198432922363,0.35913026332855225,-0.029827404767274857,-0.027696875855326653,-0.030892668291926384,2.549415
0.19393034279346466,9.804255485534668,0.38546648621559143,-0.027696875855326653,-0.024501081556081772,-0.029827404767274857,2.554411
0.16998831927776337,9.792284965515137,0.3998316824436188,-0.024501081556081772,-0.022370552644133568,-0.02556634694337845,2.559411
0.17956513166427612,9.751583099365234,0.3663128614425659,-0.02556634694337845,-0.01810949482023716,-0.024501081556081772,2.564414
0.15562310814857483,9.768342971801758,0.3758896589279175,-0.023435818031430244,-0.015978965908288956,-0.02130528911948204,2.569418
0.16519992053508759,9.749189376831055,0.3232172429561615,-0.02130528911948204,-0.012783173471689224,-0.020240023732185364,2.574416
0.14365209639072418,9.679757118225098,0.304063618183136,-0.019174760207533836,-0.012783173471689224,-0.019174760207533836,2.579425
0.10055647045373917,9.674968719482422,0.31364041566848755,-0.020240023732185364,-0.012783173471689224,-0.014913702383637428,2.58442
0.1173158809542656,9.684545516967773,0.2561795711517334,-0.01810949482023716,-0.01065264455974102,-0.012783173471689224,2.589419
0.0694318488240242,9.660603523254395,0.28969839215278625,-0.017044231295585632,-0.011717909015715122,-0.009587380103766918,2.594422
0.07182604819536209,9.66299819946289,0.2801215946674347,-0.01810949482023716,-0.009587380103766918,-0.004261057823896408,2.599427
0.06703764945268631,9.603142738342285,0.21787235140800476,-0.020240023732185364,-0.007456851191818714,-0.001065264455974102,2.604425
0.0694318488240242,9.600749015808105,0.19871874153614044,-0.024501081556081772,-0.009587380103766918,0.004261057823896408,2.60943
0.08619125932455063,9.651026725769043,0.26336219906806946,-0.027696875855326653,-0.014913702383637428,0.009587380103766918,2.614432
0.0694318488240242,9.6989107131958,0.26336219906806946,-0.027696875855326653,-0.01810949482023716,0.015978965908288956,2.61943
0.07661445438861847,9.725247383117676,0.2849099934101105,-0.026631610468029976,-0.02130528911948204,0.015978965908288956,2.62443
0.10295066982507706,9.718064308166504,0.26575639843940735,-0.024501081556081772,-0.027696875855326653,0.017044231295585632,2.629432
0.1149216815829277,9.6989107131958,0.272938996553421,-0.02876213937997818,-0.029827404767274857,0.020240023732185364,2.634436
0.1149216815829277,9.727641105651855,0.2513911724090576,-0.02876213937997818,-0.034088462591171265,0.020240023732185364,2.639433
0.17238251864910126,9.742006301879883,0.2801215946674347,-0.029827404767274857,-0.03834952041506767,0.02130528911948204,2.644442
0.19153612852096558,9.713275909423828,0.22744916379451752,-0.034088462591171265,-0.037284255027770996,0.019174760207533836,2.649442
0.2059013396501541,9.68933391571045,0.22744916379451752,-0.04048004746437073,-0.03941478207707405,0.015978965908288956,2.654441
0.26575639843940735,9.708487510681152,0.21787235140800476,-0.04687163606286049,-0.04261057823896408,0.013848437927663326,2.65944
0.3256114423274994,9.761159896850586,0.26815059781074524,-0.052197955548763275,-0.04793689772486687,0.011717909015715122,2.664442
0.35673606395721436,9.80904483795166,0.33518823981285095,-0.05645901337265968,-0.052197955548763275,0.006391586735844612,2.669445
0.3926490843296051,9.871294021606445,0.3711012601852417,-0.06072007119655609,-0.05432848632335663,0.001065264455974102,2.674446
0.42616790533065796,9.93593692779541,0.4189853072166443,-0.06072007119655609,-0.05752427875995636,-0.003195793367922306,2.679452
0.44771572947502136,9.96945571899414,0.45489832758903503,-0.06391586363315582,-0.05752427875995636,-0.01065264455974102,2.684449
0.4405331015586853,9.96945571899414,0.5267243981361389,-0.07030745595693588,-0.05965480953454971,-0.017044231295585632,2.689448
0.4189853072166443,9.921571731567383,0.5722141861915588,-0.07243797928094864,-0.05965480953454971,-0.022370552644133568,2.694449
0.4213795065879822,9.940725326538086,0.5746083855628967,-0.07669904083013535,-0.058589544147253036,-0.029827404767274857,2.699455
0.4213795065879822,9.962273597717285,0.6368576288223267,-0.08096009492874146,-0.05752427875995636,-0.03621898964047432,2.704455
0.4213795065879822,9.952696800231934,0.6775590777397156,-0.08202536404132843,-0.05965480953454971,-0.04367583990097046,2.709459
0.45010992884635925,9.952696800231934,0.7158663272857666,-0.08309062570333481,-0.06178533658385277,-0.04687163606286049,2.714461
0.4692635238170624,9.955090522766113,0.7158663272857666,-0.08415588736534119,-0.058589544147253036,-0.052197955548763275,2.719459
0.45250412821769714,9.950302124023438,0.8092401623725891,-0.08309062570333481,-0.05645901337265968,-0.05752427875995636,2.724457
0.44532153010368347,9.983820915222168,0.8595184087753296,-0.08202536404132843,-0.05326322093605995,-0.06285060197114944,2.729459
0.45250412821769714,9.986215591430664,0.9074024558067322,-0.07669904083013535,-0.05326322093605995,-0.06604639440774918,2.734464
0.4596867263317108,9.988609313964844,0.9193734526634216,-0.06924218684434891,-0.0511326938867569,-0.06924218684434891,2.739462
0.44771572947502136,9.976638793945312,0.9409212470054626,-0.058589544147253036,-0.052197955548763275,-0.06924218684434891,2.74447
0.4668693244457245,10.007762908935547,0.9648633003234863,-0.04687163606286049,-0.052197955548763275,-0.06924218684434891,2.74947
0.4884171485900879,9.981427192687988,0.9217676520347595,-0.03515372797846794,-0.05326322093605995,-0.06924218684434891,2.754469
0.47405192255973816,9.923966407775879,0.9074024558067322,-0.019174760207533836,-0.05326322093605995,-0.07137271761894226,2.759467
0.4812345504760742,9.849745750427246,0.8355764150619507,-0.009587380103766918,-0.05006742849946022,-0.07137271761894226,2.764471
0.47165772318840027,9.823410034179688,0.7469909191131592,0.001065264455974102,-0.05006742849946022,-0.06817692518234253,2.769475
0.4668693244457245,9.80904483795166,0.7038952708244324,0.011717909015715122,-0.05326322093605995,-0.0649811327457428,2.774476
0.4405331015586853,9.801861763000488,0.6607996821403503,0.020240023732185364,-0.052197955548763275,-0.06178533658385277,2.779483
0.38546648621559143,9.813833236694336,0.6033388376235962,0.02556634694337845,-0.05432848632335663,-0.06072007119655609,2.784477
0.38307225704193115,9.806650161743164,0.5554547905921936,0.034088462591171265,-0.052197955548763275,-0.06178533658385277,2.789476
0.3663128614425659,9.792284965515137,0.5195417404174805,0.04048004746437073,-0.0511326938867569,-0.0649811327457428,2.794477
0.3663128614425659,9.75637149810791,0.4213795065879822,0.044741105288267136,-0.0511326938867569,-0.07030745595693588,2.799482
0.304063618183136,9.72285270690918,0.35913026332855225,0.044741105288267136,-0.052197955548763275,-0.07243797928094864,2.804484
0.2298433631658554,9.696516990661621,0.3280056416988373,0.04261057823896408,-0.052197955548763275,-0.07137271761894226,2.809488
0.21547815203666687,9.682151794433594,0.33039984107017517,0.041545312851667404,-0.052197955548763275,-0.06711165606975555,2.814489
0.19393034279346466,9.66299819946289,0.2992752194404602,0.03834952041506767,-0.052197955548763275,-0.0649811327457428,2.819487
0.14365209639072418,9.627084732055664,0.2849099934101105,0.03195793181657791,-0.04793689772486687,-0.0649811327457428,2.824486
0.08619125932455063,9.603142738342285,0.23942017555236816,0.02130528911948204,-0.044741105288267136,-0.0649811327457428,2.829487
0.05027823522686958,9.610325813293457,0.2059013396501541,0.013848437927663326,-0.041545312851667404,-0.06285060197114944,2.834493
0.033518824726343155,9.552865028381348,0.21308395266532898,0.008522115647792816,-0.04048004746437073,-0.06391586363315582,2.839491
0.021547814831137657,9.524134635925293,0.22744916379451752,0.003195793367922306,-0.03941478207707405,-0.06178533658385277,2.844499
0.033518824726343155,9.502586364746094,0.2059013396501541,-0.004261057823896408,-0.03621898964047432,-0.058589544147253036,2.849499
0.07661445438861847,9.50498104095459,0.17238251864910126,-0.009587380103766918,-0.03515372797846794,-0.052197955548763275,2.854495
0.11971008777618408,9.461885452270508,0.16519992053508759,-0.01065264455974102,-0.03834952041506767,-0.05006742849946022,2.859496
0.15562310814857483,9.44991397857666,0.16519992053508759,-0.011717909015715122,-0.04048004746437073,-0.04687163606286049,2.864499
0.21308395266532898,9.476250648498535,0.1388636976480484,-0.014913702383637428,-0.04261057823896408,-0.041545312851667404,2.869503
0.2537853717803955,9.48343276977539,0.1364694982767105,-0.015978965908288956,-0.04367583990097046,-0.04048004746437073,2.874502
0.31364041566848755,9.454702377319336,0.13407529890537262,-0.020240023732185364,-0.04580637067556381,-0.03515372797846794,2.87951
0.3734954595565796,9.430760383605957,0.1364694982767105,-0.024501081556081772,-0.04687163606286049,-0.029827404767274857,2.884505
0.44771572947502136,9.464279174804688,0.14844051003456116,-0.030892668291926384,-0.049002163112163544,-0.02556634694337845,2.889504
0.4668693244457245,9.533711433410645,0.17238251864910126,-0.03195793181657791,-0.0511326938867569,-0.02130528911948204,2.894507
0.4836287498474121,9.548076629638672,0.2322375625371933,-0.037284255027770996,-0.05326322093605995,-0.017044231295585632,2.899511
0.4908113479614258,9.588777542114258,0.26815059781074524,-0.037284255027770996,-0.055393751710653305,-0.014913702383637428,2.90451
0.4405331015586853,9.588777542114258,0.2825157940387726,-0.037284255027770996,-0.05752427875995636,-0.012783173471689224,2.909517
0.4189853072166443,9.567230224609375,0.31124621629714966,-0.037284255027770996,-0.05645901337265968,-0.01065264455974102,2.914517
0.4405331015586853,9.586383819580078,0.33758243918418884,-0.03941478207707405,-0.05645901337265968,-0.00532632227987051,2.919515
0.4572925269603729,9.624691009521484,0.363918662071228,-0.041545312851667404,-0.052197955548763275,-0.003195793367922306,2.924518
0.45489832758903503,9.607931137084961,0.37828385829925537,-0.04793689772486687,-0.04687163606286049,0.002130528911948204,2.929517
0.4596867263317108,9.619902610778809,0.40701428055763245,-0.05752427875995636,-0.03941478207707405,0.00532632227987051,2.934521
0.4668693244457245,9.651026725769043,0.4189853072166443,-0.0649811327457428,-0.03302319720387459,0.008522115647792816,2.939518
0.4620809257030487,9.651026725769043,0.44771572947502136,-0.06817692518234253,-0.02876213937997818,0.012783173471689224,2.944528
0.4668693244457245,9.677363395690918,0.4668693244457245,-0.07456851005554199,-0.023435818031430244,0.014913702383637428,2.949527
0.5219359993934631,9.691728591918945,0.48602294921875,-0.07989483326673508,-0.017044231295585632,0.01810949482023716,2.954526
0.5386953949928284,9.780313491821289,0.524330198764801,-0.08202536404132843,-0.013848437927663326,0.022370552644133568,2.959525
0.5363011956214905,9.852140426635742,0.5219359993934631,-0.08522115647792816,-0.01065264455974102,0.022370552644133568,2.964529
0.5482721924781799,9.904812812805176,0.5722141861915588,-0.0884169489145279,-0.007456851191818714,0.024501081556081772,2.969531
0.5003881454467773,9.921571731567383,0.6033388376235962,-0.08735167980194092,-0.007456851191818714,0.026631610468029976,2.974531
0.5506663918495178,9.96945571899414,0.6057330369949341,-0.08628641813993454,-0.00532632227987051,0.026631610468029976,2.979537
0.5506663918495178,10.070012092590332,0.6775590777397156,-0.08415588736534119,-0.004261057823896408,0.026631610468029976,2.984534
0.586579442024231,10.11789608001709,0.6799532771110535,-0.07776430249214172,0.0,0.026631610468029976,2.989533
0.6105214357376099,10.192116737365723,0.646434485912323,-0.07030745595693588,0.0,0.024501081556081772,2.994534
0.6272808313369751,10.182539939880371,0.6200982332229614,-0.06391586363315582,0.0,0.02130528911948204,2.999539
0.608127236366272,10.168174743652344,0.608127236366272,-0.05326322093605995,-0.001065264455974102,0.01810949482023716,3.004538
0.6248866319656372,10.180145263671875,0.5937620401382446,-0.04048004746437073,-0.002130528911948204,0.015978965908288956,3.009546
0.6536170840263367,10.156203269958496,0.5889736413955688,-0.027696875855326653,-0.00532632227987051,0.014913702383637428,3.014546
0.6584054827690125,10.105925559997559,0.5506663918495178,-0.01065264455974102,-0.008522115647792816,0.013848437927663326,3.019543
0.6320692300796509,10.070012092590332,0.5219359993934631,0.006391586735844612,-0.01065264455974102,0.007456851191818714,3.024543
0.6392518281936646,10.050858497619629,0.43095630407333374,0.020240023732185364,-0.01065264455974102,0.006391586735844612,3.029544
0.6200982332229614,9.979032516479492,0.35913026332855225,0.03515372797846794,-0.013848437927663326,0.006391586735844612,3.03455
0.569819986820221,9.904812812805176,0.27054479718208313,0.0511326938867569,-0.019174760207533836,0.007456851191818714,3.039547
0.5554547905921936,9.84495735168457,0.22744916379451752,0.06072007119655609,-0.024501081556081772,0.007456851191818714,3.044556
0.5219359993934631,9.770736694335938,0.19393034279346466,0.06924218684434891,-0.027696875855326653,0.009587380103766918,3.049555
0.5363011956214905,9.718064308166504,0.11252748221158981,0.07350324839353561,-0.02876213937997818,0.012783173471689224,3.054554
0.5147533416748047,9.691728591918945,0.08619125932455063,0.07137271761894226,-0.03195793181657791,0.01810949482023716,3.059552
0.47884035110473633,9.655815124511719,0.08619125932455063,0.07137271761894226,-0.034088462591171265,0.020240023732185364,3.064557
0.4596867263317108,9.624691009521484,0.08858546614646912,0.06817692518234253,-0.03621898964047432,0.023435818031430244,3.069559
0.44771572947502136,9.62947940826416,0.15562310814857483,0.06178533658385277,-0.037284255027770996,0.02556634694337845,3.074577
0.4165911078453064,9.667786598205566,0.2059013396501541,0.05752427875995636,-0.037284255027770996,0.02556634694337845,3.079567
0.40222588181495667,9.701305389404297,0.24420857429504395,0.0511326938867569,-0.034088462591171265,0.023435818031430244,3.084562
0.3711012601852417,9.708487510681152,0.2849099934101105,0.044741105288267136,-0.02876213937997818,0.02130528911948204,3.089561
0.3734954595565796,9.6989107131958,0.31603461503982544,0.03834952041506767,-0.022370552644133568,0.017044231295585632,3.094562
0.3519476354122162,9.715670585632324,0.3711012601852417,0.03302319720387459,-0.014913702383637428,0.011717909015715122,3.099569
0.3280056416988373,9.710882186889648,0.3998316824436188,0.02556634694337845,-0.00532632227987051,0.007456851191818714,3.104569
0.3016694188117981,9.710882186889648,0.42856210470199585,0.020240023732185364,0.00532632227987051,0.001065264455974102,3.109574
0.2992752194404602,9.708487510681152,0.4572925269603729,0.017044231295585632,0.015978965908288956,-0.00532632227987051,3.114574
0.2944868206977844,9.720458984375,0.4381389021873474,0.015978965908288956,0.024501081556081772,-0.006391586735844612,3.119572
0.2849099934101105,9.713275909423828,0.43095630407333374,0.015978965908288956,0.030892668291926384,-0.011717909015715122,3.124571
0.29209262132644653,9.775525093078613,0.42856210470199585,0.015978965908288956,0.03515372797846794,-0.015978965908288956,3.129572
0.30885201692581177,9.780313491821289,0.43095630407333374,0.020240023732185364,0.03941478207707405,-0.017044231295585632,3.134579
0.2944868206977844,9.78989028930664,0.38307225704193115,0.024501081556081772,0.04261057823896408,-0.01810949482023716,3.139576
0.31124621629714966,9.768342971801758,0.35434186458587646,0.027696875855326653,0.044741105288267136,-0.020240023732185364,3.144586
0.3519476354122162,9.761159896850586,0.3064578175544739,0.029827404767274857,0.04687163606286049,-0.022370552644133568,3.149584
0.35673606395721436,9.732429504394531,0.26575639843940735,0.034088462591171265,0.04793689772486687,-0.023435818031430244,3.154581
0.33518823981285095,9.710882186889648,0.2585737705230713,0.03834952041506767,0.049002163112163544,-0.022370552644133568,3.159581
0.3280056416988373,9.6989107131958,0.20111294090747833,0.04687163606286049,0.049002163112163544,-0.02130528911948204,3.164585
0.33997663855552673,9.660603523254395,0.17477671802043915,0.05006742849946022,0.049002163112163544,-0.022370552644133568,3.169588
0.35673606395721436,9.605537414550781,0.14604631066322327,0.05432848632335663,0.04793689772486687,-0.022370552644133568,3.174587
0.38067805767059326,9.591172218322754,0.11971008777618408,0.06072007119655609,0.04580637067556381,-0.022370552644133568,3.179595
0.3878606855869293,9.617507934570312,0.1149216815829277,0.06178533658385277,0.04687163606286049,-0.019174760207533836,3.18459
0.3998316824436188,9.5624418258667,0.11971008777618408,0.05965480953454971,0.04793689772486687,-0.015978965908288956,3.189589
0.4357447028160095,9.512163162231445,0.14604631066322327,0.055393751710653305,0.049002163112163544,-0.011717909015715122,3.194592
0.44771572947502136,9.512163162231445,0.1628057211637497,0.0511326938867569,0.05006742849946022,-0.007456851191818714,3.199598
0.4620809257030487,9.533711433410645,0.19393034279346466,0.044741105288267136,0.0511326938867569,-0.002130528911948204,3.204595
0.4596867263317108,9.53849983215332,0.2298433631658554,0.03941478207707405,0.0511326938867569,0.001065264455974102,3.209602
0.5195417404174805,9.550470352172852,0.23942017555236816,0.03515372797846794,0.052197955548763275,0.003195793367922306,3.214602
0.5506663918495178,9.550470352172852,0.2585737705230713,0.02556634694337845,0.05645901337265968,0.002130528911948204,3.2196
0.5626373887062073,9.59835433959961,0.29209262132644653,0.017044231295585632,0.05752427875995636,0.00532632227987051,3.2246
0.569819986820221,9.603142738342285,0.3495534360408783,0.009587380103766918,0.058589544147253036,0.007456851191818714,3.229602
0.5482721924781799,9.684545516967773,0.3998316824436188,0.0,0.06072007119655609,0.01065264455974102,3.234607
0.5434837937355042,9.763554573059082,0.4596867263317108,-0.006391586735844612,0.06604639440774918,0.01065264455974102,3.239604
0.5051765441894531,9.794678688049316,0.5003881454467773,-0.013848437927663326,0.06924218684434891,0.009587380103766918,3.244615
0.5027823448181152,9.763554573059082,0.5291185975074768,-0.019174760207533836,0.07456851005554199,0.009587380103766918,3.249612
0.47884035110473633,9.832986831665039,0.5626373887062073,-0.02130528911948204,0.08096009492874146,0.01065264455974102,3.254609
0.4812345504760742,9.9000244140625,0.569819986820221,-0.023435818031430244,0.08735167980194092,0.012783173471689224,3.25961
0.507570743560791,9.938331604003906,0.6200982332229614,-0.022370552644133568,0.09054747968912125,0.012783173471689224,3.264613
0.5386953949928284,9.983820915222168,0.6200982332229614,-0.017044231295585632,0.09374327212572098,0.013848437927663326,3.269616
0.545877993106842,9.979032516479492,0.6368576288223267,-0.008522115647792816,0.09480853378772736,0.013848437927663326,3.274617
0.5674257874488831,9.974244117736816,0.6129156351089478,0.004261057823896408,0.092678003013134,0.015978965908288956,3.279623
0.5674257874488831,9.981427192687988,0.6129156351089478,0.015978965908288956,0.09054747968912125,0.017044231295585632,3.284623
0.5913678407669067,9.988609313964844,0.6560112833976746,0.034088462591171265,0.08735167980194092,0.017044231295585632,3.289619
0.6248866319656372,9.959878921508789,0.5961562395095825,0.0511326938867569,0.08628641813993454,0.015978965908288956,3.294619
0.6584054827690125,9.911994934082031,0.5339069962501526,0.06711165606975555,0.08309062570333481,0.017044231295585632,3.299626
0.6703764796257019,9.873687744140625,0.4668693244457245,0.07989483326673508,0.07776430249214172,0.017044231295585632,3.304624
0.6727706789970398,9.852140426635742,0.3926490843296051,0.09161274135112762,0.07563377171754837,0.014913702383637428,3.309632
0.6607996821403503,9.859322547912598,0.36152446269989014,0.10013485699892044,0.07243797928094864,0.013848437927663326,3.314632
0.5937620401382446,9.852140426635742,0.3256114423274994,0.10333064943552017,0.06924218684434891,0.011717909015715122,3.319629
0.569819986820221,9.804255485534668,0.24420857429504395,0.10439591109752655,0.06817692518234253,0.01065264455974102,3.324628
0.5746083855628967,9.782708168029785,0.2513911724090576,0.10013485699892044,0.06711165606975555,0.012783173471689224,3.329629
0.5554547905921936,9.794678688049316,0.26815059781074524,0.09374327212572098,0.06711165606975555,0.014913702383637428,3.334636
0.5530605912208557,9.792284965515137,0.272938996553421,0.08415588736534119,0.07350324839353561,0.014913702383637428,3.339632
0.5267243981361389,9.780313491821289,0.2537853717803955,0.07243797928094864,0.08202536404132843,0.012783173471689224,3.344644
0.5171475410461426,9.794678688049316,0.24420857429504395,0.06072007119655609,0.08735167980194092,0.009587380103766918,3.349641
0.4908113479614258,9.77791976928711,0.21308395266532898,0.04687163606286049,0.09161274135112762,0.006391586735844612,3.354639
0.4836287498474121,9.804255485534668,0.2298433631658554,0.03195793181657791,0.0884169489145279,0.007456851191818714,3.359638
0.4381389021873474,9.806650161743164,0.2346317619085312,0.017044231295585632,0.08735167980194092,0.003195793367922306,3.364641
0.3734954595565796,9.885659217834473,0.24181437492370605,0.001065264455974102,0.09054747968912125,0.0,3.369645
0.3423708379268646,9.962273597717285,0.2968810200691223,-0.013848437927663326,0.09161274135112762,0.0,3.374645
0.2992752194404602,10.022128105163574,0.38067805767059326,-0.02556634694337845,0.09054747968912125,-0.003195793367922306,3.379653
0.2825157940387726,10.06043529510498,0.47405192255973816,-0.034088462591171265,0.09587379544973373,-0.007456851191818714,3.384647
0.2849099934101105,10.079588890075684,0.5123591423034668,-0.03834952041506767,0.09800432622432709,-0.009587380103766918,3.389646
0.304063618183136,10.120290756225586,0.5339069962501526,-0.04048004746437073,0.10120011866092682,-0.013848437927663326,3.394648
0.31842881441116333,10.098742485046387,0.5650315880775452,-0.037284255027770996,0.10546118021011353,-0.019174760207533836,3.399656
0.363918662071228,10.103530883789062,0.6248866319656372,-0.03302319720387459,0.10439591109752655,-0.02130528911948204,3.404654
0.38307225704193115,10.093954086303711,0.6607996821403503,-0.026631610468029976,0.10546118021011353,-0.02556634694337845,3.409662
0.3998316824436188,10.086771965026855,0.6871358752250671,-0.02130528911948204,0.11078750342130661,-0.02556634694337845,3.414662
0.3974374830722809,10.108319282531738,0.7086837291717529,-0.01065264455974102,0.11824434995651245,-0.023435818031430244,3.419658
0.4118026793003082,10.110713958740234,0.689530074596405,0.0,0.12463593482971191,-0.02130528911948204,3.424656
0.40701428055763245,10.101137161254883,0.7661445140838623,0.012783173471689224,0.12783172726631165,-0.017044231295585632,3.429658
0.40701428055763245,10.055646896362305,0.7350199222564697,0.024501081556081772,0.13102751970291138,-0.012783173471689224,3.434665
0.40222588181495667,10.005369186401367,0.7876923680305481,0.03834952041506767,0.13102751970291138,-0.00532632227987051,3.439662
0.4141969084739685,9.96945571899414,0.768538773059845,0.049002163112163544,0.13315805792808533,0.004261057823896408,3.444672
0.3758896589279175,10.000580787658691,0.7182605266571045,0.06178533658385277,0.1342233121395111,0.01065264455974102,3.449669
0.40701428055763245,9.916783332824707,0.811634361743927,0.07350324839353561,0.13741910457611084,0.012783173471689224,3.454666
0.4213795065879822,9.928754806518555,0.768538773059845,0.07669904083013535,0.13741910457611084,0.015978965908288956,3.459666
0.4165911078453064,9.813833236694336,0.5841852426528931,0.08948221057653427,0.13848437368869781,0.022370552644133568,3.46467
0.4405331015586853,9.773131370544434,0.4884171485900879,0.09693906456232071,0.1342233121395111,0.034088462591171265,3.469673
0.5123591423034668,9.78989028930664,0.45250412821769714,0.1022653877735138,0.12889699637889862,0.04367583990097046,3.474672
0.5363011956214905,9.718064308166504,0.3902548849582672,0.10865697264671326,0.12676647305488586,0.044741105288267136,3.47968
0.5195417404174805,9.696516990661621,0.28730419278144836,0.10865697264671326,0.12357067316770554,0.05006742849946022,3.484676
0.5506663918495178,9.677363395690918,0.26096799969673157,0.10865697264671326,0.11717908829450607,0.05326322093605995,3.489675
0.569819986820221,9.648633003234863,0.20111294090747833,0.10439591109752655,0.11717908829450607,0.05326322093605995,3.494678
0.6033388376235962,9.63187313079834,0.12689268589019775,0.09693906456232071,0.11717908829450607,0.05326322093605995,3.499685
0.5889736413955688,9.641449928283691,0.08619125932455063,0.09054747968912125,0.11717908829450607,0.055393751710653305,3.504681
0.5650315880775452,9.600749015808105,0.06224924325942993,0.07989483326673508,0.1203748807311058,0.05752427875995636,3.509689
0.6536170840263367,9.624691009521484,0.033518824726343155,0.0649811327457428,0.12144014239311218,0.05752427875995636,3.514688
0.6607996821403503,9.63187313079834,0.06224924325942993,0.052197955548763275,0.11930961906909943,0.055393751710653305,3.519685
0.6512228846549988,9.607931137084961,0.047884032130241394,0.03941478207707405,0.1203748807311058,0.0511326938867569,3.524687
0.6775590777397156,9.636661529541016,0.043095629662275314,0.02556634694337845,0.12250541150569916,0.0511326938867569,3.529687
0.6943184733390808,9.658209800720215,0.13407529890537262,0.015978965908288956,0.12144014239311218,0.05006742849946022,3.534692
0.7206547260284424,9.660603523254395,0.1843535304069519,0.007456851191818714,0.1203748807311058,0.04687163606286049,3.539689
0.7469909191131592,9.749189376831055,0.2059013396501541,-0.002130528911948204,0.11930961906909943,0.04367583990097046,3.544702
0.7445967197418213,9.785101890563965,0.31364041566848755,-0.007456851191818714,0.11930961906909943,0.03941478207707405,3.549697
0.7422025203704834,9.840168952941895,0.3232172429561615,-0.007456851191818714,0.11824434995651245,0.03195793181657791,3.554696
0.7469909191131592,9.907206535339355,0.40222588181495667,-0.006391586735844612,0.11398329585790634,0.02556634694337845,3.559696
0.7398083209991455,9.955090522766113,0.47884035110473633,-0.003195793367922306,0.10972223430871964,0.019174760207533836,3.5647
0.727837324142456,9.995792388916016,0.49559974670410156,0.006391586735844612,0.10865697264671326,0.011717909015715122,3.569701
0.7350199222564697,9.955090522766113,0.5291185975074768,0.019174760207533836,0.10546118021011353,0.00532632227987051,3.5747
0.7422025203704834,9.959878921508789,0.5099649429321289,0.029827404767274857,0.1022653877735138,0.001065264455974102,3.579709
0.7398083209991455,9.955090522766113,0.524330198764801,0.03834952041506767,0.09800432622432709,-0.00532632227987051,3.584705
0.706289529800415,9.890447616577148,0.4572925269603729,0.049002163112163544,0.09480853378772736,-0.008522115647792816,3.589704
0.6751648783683777,9.864110946655273,0.3902548849582672,0.06285060197114944,0.08522115647792816,-0.007456851191818714,3.594705
0.667982280254364,9.849745750427246,0.3663128614425659,0.07350324839353561,0.07456851005554199,-0.008522115647792816,3.599713
0.6200982332229614,9.78989028930664,0.395043283700943,0.08415588736534119,0.06178533658385277,-0.006391586735844612,3.604709
0.5650315880775452,9.725247383117676,0.3711012601852417,0.09587379544973373,0.0511326938867569,-0.007456851191818714,3.609718
0.569819986820221,9.670180320739746,0.3447650372982025,0.1022653877735138,0.041545312851667404,-0.008522115647792816,3.614717
0.5339069962501526,9.66539192199707,0.35913026332855225,0.10972223430871964,0.03515372797846794,-0.00532632227987051,3.619714
0.5291185975074768,9.603142738342285,0.33758243918418884,0.11291802674531937,0.03302319720387459,-0.003195793367922306,3.624713
0.507570743560791,9.50498104095459,0.2968810200691223,0.1161138191819191,0.030892668291926384,-0.003195793367922306,3.629715
0.49799394607543945,9.48343276977539,0.29209262132644653,0.11504855751991272,0.029827404767274857,0.001065264455974102,3.63472
0.45489832758903503,9.435548782348633,0.2777273952960968,0.11291802674531937,0.027696875855326653,0.004261057823896408,3.639718
0.4405331015586853,9.3828763961792,0.29209262132644653,0.11078750342130661,0.027696875855326653,0.007456851191818714,3.644731
0.40701428055763245,9.385271072387695,0.272938996553421,0.10759170353412628,0.02556634694337845,0.011717909015715122,3.649725
0.38546648621559143,9.430760383605957,0.3447650372982025,0.09800432622432709,0.024501081556081772,0.015978965908288956,3.654723
0.3447650372982025,9.41639518737793,0.45010992884635925,0.09054747968912125,0.027696875855326653,0.014913702383637428,3.659723
0.2849099934101105,9.409213066101074,0.5051765441894531,0.08202536404132843,0.03515372797846794,0.014913702383637428,3.664729
0.2585737705230713,9.41400146484375,0.545877993106842,0.07137271761894226,0.04261057823896408,0.017044231295585632,3.669731
0.23942017555236816,9.428366661071777,0.6488286852836609,0.06391586363315582,0.05006742849946022,0.02130528911948204,3.674735
0.21308395266532898,9.437943458557129,0.6512228846549988,0.05752427875995636,0.05752427875995636,0.024501081556081772,3.679737
0.2298433631658554,9.433155059814453,0.6847416758537292,0.05326322093605995,0.05645901337265968,0.02876213937997818,3.684733
0.2513911724090576,9.378087997436523,0.5937620401382446,0.049002163112163544,0.055393751710653305,0.030892668291926384,3.689732
0.2561795711517334,9.385271072387695,0.7781155705451965,0.04580637067556381,0.044741105288267136,0.03834952041506767,3.694733
0.23702596127986908,9.509769439697266,0.8523358106613159,0.041545312851667404,0.044741105288267136,0.04367583990097046,3.699743
0.21547815203666687,9.59596061706543,0.9145850539207458,0.04048004746437073,0.04687163606286049,0.03941478207707405,3.704739
0.20111294090747833,9.536105155944824,0.9600749015808105,0.04261057823896408,0.04580637067556381,0.03621898964047432,3.709747
0.18914192914962769,9.430760383605957,0.9193734526634216,0.04793689772486687,0.04687163606286049,0.04048004746437073,3.714745
0.16519992053508759,9.62947940826416,0.9552865028381348,0.04793689772486687,0.05006742849946022,0.0511326938867569,3.719744
0.16759411990642548,9.710882186889648,0.9983820915222168,0.052197955548763275,0.052197955548763275,0.04580637067556381,3.724742
0.1388636976480484,9.588777542114258,0.950498104095459,0.06285060197114944,0.052197955548763275,0.037284255027770996,3.729743
0.10295066982507706,9.495404243469238,0.8427590131759644,0.07030745595693588,0.05326322093605995,0.03941478207707405,3.734748
0.08858546614646912,9.57201862335205,0.8403648138046265,0.07350324839353561,0.04793689772486687,0.044741105288267136,3.739747
0.05746084079146385,9.619902610778809,0.8475474119186401,0.07669904083013535,0.04580637067556381,0.041545312851667404,3.74476
0.011971008032560349,9.531316757202148,0.8020575642585754,0.08202536404132843,0.04367583990097046,0.03834952041506767,3.749754
-0.002394201699644327,9.524134635925293,0.730231523513794,0.08309062570333481,0.03834952041506767,0.03941478207707405,3.754751
0.033518824726343155,9.500192642211914,0.6751648783683777,0.08202536404132843,0.03515372797846794,0.04048004746437073,3.759752
0.035913024097681046,9.435548782348633,0.6009446382522583,0.08096009492874146,0.03195793181657791,0.044741105288267136,3.764758
0.07900865375995636,9.425971984863281,0.6440402865409851,0.07563377171754837,0.02556634694337845,0.0511326938867569,3.769759
0.05746084079146385,9.552865028381348,0.608127236366272,0.06391586363315582,0.024501081556081772,0.05326322093605995,3.774759
0.07182604819536209,9.469067573547363,0.5913678407669067,0.055393751710653305,0.023435818031430244,0.05006742849946022,3.779766
0.10295066982507706,9.406818389892578,0.6129156351089478,0.04793689772486687,0.020240023732185364,0.05326322093605995,3.784761
0.11252748221158981,9.418789863586426,0.5722141861915588,0.04048004746437073,0.023435818031430244,0.05965480953454971,3.789761
0.14365209639072418,9.421183586120605,0.5722141861915588,0.030892668291926384,0.024501081556081772,0.06072007119655609,3.794763
0.14365209639072418,9.44991397857666,0.6033388376235962,0.02130528911948204,0.022370552644133568,0.06285060197114944,3.799771
0.16519992053508759,9.349357604980469,0.6177040338516235,0.012783173471689224,0.023435818031430244,0.06391586363315582,3.804767
0.15801730751991272,9.327810287475586,0.6416460275650024,0.001065264455974102,0.02876213937997818,0.07243797928094864,3.809776
0.10534487664699554,9.38048267364502,0.7158663272857666,-0.008522115647792816,0.034088462591171265,0.07776430249214172,3.814774
0.10534487664699554,9.406818389892578,0.7398083209991455,-0.017044231295585632,0.041545312851667404,0.07776430249214172,3.819771
0.16759411990642548,9.411606788635254,0.7134721279144287,-0.023435818031430244,0.04687163606286049,0.07776430249214172,3.824772
0.1628057211637497,9.418789863586426,0.6727706789970398,-0.02556634694337845,0.044741105288267136,0.08628641813993454,3.829772
0.14844051003456116,9.543288230895996,0.7110779285430908,-0.030892668291926384,0.044741105288267136,0.09054747968912125,3.834777
0.1628057211637497,9.567230224609375,0.6799532771110535,-0.03621898964047432,0.049002163112163544,0.08735167980194092,3.839775
0.1604115068912506,9.536105155944824,0.6488286852836609,-0.03834952041506767,0.052197955548763275,0.09161274135112762,3.844789
0.15562310814857483,9.593565940856934,0.7038952708244324,-0.04793689772486687,0.052197955548763275,0.09587379544973373,3.849783
0.1364694982767105,9.643844604492188,0.730231523513794,-0.052197955548763275,0.058589544147253036,0.09800432622432709,3.854781
0.16759411990642548,9.600749015808105,0.7158663272857666,-0.058589544147253036,0.06391586363315582,0.09906959533691406,3.85978
0.1843535304069519,9.720458984375,0.7206547260284424,-0.06285060197114944,0.06178533658385277,0.1022653877735138,3.864787
0.16759411990642548,9.801861763000488,0.8188169598579407,-0.06178533658385277,0.05752427875995636,0.09906959533691406,3.869788
0.19393034279346466,9.849745750427246,0.8020575642585754,-0.05645901337265968,0.052197955548763275,0.09374327212572098,3.874787
0.18914192914962769,9.859322547912598,0.8307880163192749,-0.05326322093605995,0.04580637067556381,0.09161274135112762,3.879794
0.17238251864910126,9.883264541625977,0.8068459630012512,-0.04687163606286049,0.03941478207707405,0.09161274135112762,3.88479
0.19393034279346466,9.921571731567383,0.7709329724311829,-0.04261057823896408,0.03515372797846794,0.09054747968912125,3.88979
0.20111294090747833,9.914389610290527,0.8164227604866028,-0.03621898964047432,0.03195793181657791,0.0884169489145279,3.89479
0.22505496442317963,9.888052940368652,0.7398083209991455,-0.03195793181657791,0.030892668291926384,0.08522115647792816,3.8998
0.21787235140800476,9.837775230407715,0.608127236366272,-0.03515372797846794,0.02876213937997818,0.07776430249214172,3.904795
0.21308395266532898,9.801861763000488,0.5195417404174805,-0.03834952041506767,0.022370552644133568,0.07350324839353561,3.909803
0.22026655077934265,9.773131370544434,0.4812345504760742,-0.037284255027770996,0.015978965908288956,0.07137271761894226,3.914807
0.2346317619085312,9.758766174316406,0.47644615173339844,-0.034088462591171265,0.008522115647792816,0.06604639440774918,3.9198
0.2513911724090576,9.72285270690918,0.44771572947502136,-0.029827404767274857,0.004261057823896408,0.06178533658385277,3.924799
0.26336219906806946,9.63187313079834,0.44532153010368347,-0.02876213937997818,0.002130528911948204,0.05432848632335663,3.9298
0.22505496442317963,9.63187313079834,0.3711012601852417,-0.027696875855326653,-0.003195793367922306,0.05326322093605995,3.934807
0.19632454216480255,9.59835433959961,0.29209262132644653,-0.026631610468029976,-0.006391586735844612,0.049002163112163544,3.939803
0.2059013396501541,9.495404243469238,0.24660277366638184,-0.02556634694337845,-0.011717909015715122,0.04367583990097046,3.944821
0.18914192914962769,9.497797966003418,0.22266076505184174,-0.02556634694337845,-0.017044231295585632,0.03621898964047432,3.949818
0.17717093229293823,9.521739959716797,0.19393034279346466,-0.029827404767274857,-0.017044231295585632,0.030892668291926384,3.95481
0.24420857429504395,9.5408935546875,0.19871874153614044,-0.03515372797846794,-0.020240023732185364,0.01065264455974102,3.959812
0.19632454216480255,9.516951560974121,0.17477671802043915,-0.03621898964047432,-0.02876213937997818,-0.023435818031430244,3.964822
-0.028730420395731926,9.485827445983887,0.19393034279346466,-0.04048004746437073,-0.029827404767274857,-0.037284255027770996,3.969816
-0.1149216815829277,9.615114212036133,0.2753331959247589,-0.052197955548763275,-0.030892668291926384,-0.011717909015715122,3.974816
0.009576806798577309,9.658209800720215,0.24899697303771973,-0.05645901337265968,-0.02876213937997818,0.009587380103766918,3.979822
0.05267243832349777,9.560047149658203,0.26336219906806946,-0.05965480953454971,-0.029827404767274857,0.006391586735844612,3.984818
0.07661445438861847,9.519346237182617,0.2968810200691223,-0.0649811327457428,-0.030892668291926384,-0.002130528911948204,3.989817
0.06464344263076782,9.564835548400879,0.33279404044151306,-0.07350324839353561,-0.03302319720387459,-0.004261057823896408,3.994819
0.043095629662275314,9.710882186889648,0.395043283700943,-0.07989483326673508,-0.03834952041506767,-0.008522115647792816,3.999827
0.0071826050989329815,9.744400978088379,0.47884035110473633,-0.08415588736534119,-0.04048004746437073,-0.01810949482023716,4.004825
0.021547814831137657,9.763554573059082,0.5434837937355042,-0.08948221057653427,-0.041545312851667404,-0.023435818031430244,4.009831
-0.035913024097681046,9.765948295593262,0.5482721924781799,-0.09693906456232071,-0.041545312851667404,-0.026631610468029976,4.01483
-0.0454898327589035,9.78989028930664,0.5602431893348694,-0.1022653877735138,-0.03941478207707405,-0.02876213937997818,4.019828
-0.05267243832349777,9.758766174316406,0.6153098344802856,-0.10972223430871964,-0.03834952041506767,-0.03195793181657791,4.024827
-0.05506663769483566,9.768342971801758,0.6607996821403503,-0.11291802674531937,-0.03941478207707405,-0.03195793181657791,4.029829
-0.06464344263076782,9.797073364257812,0.6392518281936646,-0.11930961906909943,-0.03834952041506767,-0.03515372797846794,4.034835
-0.031124621629714966,9.816226959228516,0.6560112833976746,-0.12250541150569916,-0.03834952041506767,-0.037284255027770996,4.039833
-0.011971008032560349,9.856928825378418,0.6392518281936646,-0.12144014239311218,-0.03941478207707405,-0.03834952041506767,4.044843
0.0,9.940725326538086,0.6871358752250671,-0.12144014239311218,-0.04367583990097046,-0.04048004746437073,4.049842
0.033518824726343155,9.974244117736816,0.727837324142456,-0.1203748807311058,-0.04261057823896408,-0.041545312851667404,4.054837
0.05267243832349777,10.062829971313477,0.768538773059845,-0.11398329585790634,-0.04261057823896408,-0.04580637067556381,4.059837
0.035913024097681046,10.103530883789062,0.8140285611152649,-0.10439591109752655,-0.04048004746437073,-0.0511326938867569,4.064844
0.023942016065120697,10.038887977600098,0.7805097699165344,-0.09587379544973373,-0.04261057823896408,-0.05432848632335663,4.069845
0.043095629662275314,10.046070098876953,0.7757213711738586,-0.08735167980194092,-0.041545312851667404,-0.05326322093605995,4.074846
0.028730420395731926,10.029311180114746,0.8164227604866028,-0.07350324839353561,-0.04048004746437073,-0.0511326938867569,4.079851
0.0454898327589035,10.067618370056152,0.6703764796257019,-0.05645901337265968,-0.04048004746437073,-0.05006742849946022,4.084847
0.047884032130241394,10.007762908935547,0.646434485912323,-0.04793689772486687,-0.04261057823896408,-0.04793689772486687,4.089846
0.06464344263076782,9.96945571899414,0.629675030708313,-0.041545312851667404,-0.04261057823896408,-0.044741105288267136,4.094849
0.028730420395731926,9.962273597717285,0.6033388376235962,-0.03941478207707405,-0.041545312851667404,-0.037284255027770996,4.099855
0.016759412363171577,9.938331604003906,0.5746083855628967,-0.03302319720387459,-0.041545312851667404,-0.026631610468029976,4.104852
0.038307227194309235,9.86889934539795,0.49559974670410156,-0.02556634694337845,-0.041545312851667404,-0.019174760207533836,4.10986
0.043095629662275314,9.849745750427246,0.49320554733276367,-0.017044231295585632,-0.04793689772486687,-0.012783173471689224,4.114859
0.08140286058187485,9.794678688049316,0.4189853072166443,-0.004261057823896408,-0.05326322093605995,-0.008522115647792816,4.119857
0.035913024097681046,9.742006301879883,0.3998316824436188,-0.001065264455974102,-0.05965480953454971,-0.002130528911948204,4.124857
0.028730420395731926,9.734824180603027,0.33518823981285095,0.001065264455974102,-0.05965480953454971,0.003195793367922306,4.129859
0.0454898327589035,9.751583099365234,0.33997663855552673,0.002130528911948204,-0.06604639440774918,0.01065264455974102,4.134863
0.031124621629714966,9.775525093078613,0.31603461503982544,0.004261057823896408,-0.06817692518234253,0.015978965908288956,4.13986
0.035913024097681046,9.773131370544434,0.304063618183136,0.00532632227987051,-0.06817692518234253,0.024501081556081772,4.144872
0.033518824726343155,9.77791976928711,0.31603461503982544,0.004261057823896408,-0.06817692518234253,0.030892668291926384,4.149868
0.033518824726343155,9.799467086791992,0.2801215946674347,0.004261057823896408,-0.06924218684434891,0.03302319720387459,4.154866
0.035913024097681046,9.835380554199219,0.24181437492370605,0.004261057823896408,-0.06924218684434891,0.037284255027770996,4.159866
0.031124621629714966,9.832986831665039,0.3016694188117981,0.002130528911948204,-0.06924218684434891,0.037284255027770996,4.164872
0.035913024097681046,9.84495735168457,0.304063618183136,0.002130528911948204,-0.0649811327457428,0.037284255027770996,4.169872
0.021547814831137657,9.828198432922363,0.2801215946674347,0.001065264455974102,-0.05965480953454971,0.03621898964047432,4.174874
0.023942016065120697,9.806650161743164,0.30885201692581177,-0.002130528911948204,-0.052197955548763275,0.037284255027770996,4.179879
0.035913024097681046,9.782708168029785,0.28730419278144836,-0.004261057823896408,-0.04261057823896408,0.03621898964047432,4.184876
0.05746084079146385,9.792284965515137,0.2777273952960968,-0.006391586735844612,-0.03515372797846794,0.03941478207707405,4.189876
0.06703764945268631,9.751583099365234,0.28969839215278625,-0.007456851191818714,-0.02876213937997818,0.03941478207707405,4.194876
0.033518824726343155,9.749189376831055,0.2513911724090576,-0.006391586735844612,-0.022370552644133568,0.03834952041506767,4.199883
0.026336219161748886,9.749189376831055,0.24899697303771973,-0.008522115647792816,-0.01810949482023716,0.03834952041506767,4.20488
0.019153613597154617,9.730035781860352,0.22505496442317963,-0.004261057823896408,-0.017044231295585632,0.037284255027770996,4.209889
0.021547814831137657,9.713275909423828,0.21308395266532898,0.0,-0.019174760207533836,0.037284255027770996,4.214888
0.009576806798577309,9.674968719482422,0.15322890877723694,0.003195793367922306,-0.014913702383637428,0.03515372797846794,4.219885
-0.016759412363171577,9.603142738342285,0.1173158809542656,0.008522115647792816,-0.015978965908288956,0.037284255027770996,4.224885
-0.06224924325942993,9.524134635925293,0.047884032130241394,0.008522115647792816,-0.01810949482023716,0.03941478207707405,4.229886
-0.0933738648891449,9.488221168518066,-0.009576806798577309,0.007456851191818714,-0.01810949482023716,0.044741105288267136,4.234891
-0.1173158809542656,9.481039047241211,-0.019153613597154617,0.007456851191818714,-0.022370552644133568,0.04580637067556381,4.239889
-0.17477671802043915,9.493009567260742,-0.1388636976480484,0.007456851191818714,-0.02876213937997818,0.05006742849946022,4.244901
-0.17956513166427612,9.519346237182617,-0.2346317619085312,0.01065264455974102,-0.03515372797846794,0.052197955548763275,4.2499
-0.15562310814857483,9.555258750915527,-0.2585737705230713,0.00532632227987051,-0.04367583990097046,0.0511326938867569,4.254895
-0.13407529890537262,9.634267807006836,-0.2585737705230713,-0.008522115647792816,-0.05006742849946022,0.05326322093605995,4.259895
-0.090979665517807,9.720458984375,-0.2537853717803955,-0.020240023732185364,-0.049002163112163544,0.049002163112163544,4.264901
-0.040701430290937424,9.75397777557373,-0.1867477297782898,-0.03515372797846794,-0.04580637067556381,0.04793689772486687,4.269901
0.0,9.773131370544434,-0.11252748221158981,-0.05326322093605995,-0.04048004746437073,0.04367583990097046,4.274904
0.019153613597154617,9.818621635437012,-0.016759412363171577,-0.0649811327457428,-0.037284255027770996,0.034088462591171265,4.279908
0.07182604819536209,9.876082420349121,0.07900865375995636,-0.07456851005554199,-0.034088462591171265,0.02556634694337845,4.284904
0.09576806426048279,9.926360130310059,0.1867477297782898,-0.07776430249214172,-0.03195793181657791,0.01810949482023716,4.289903
0.14604631066322327,10.010157585144043,0.2944868206977844,-0.0788295641541481,-0.027696875855326653,0.007456851191818714,4.294905
0.14604631066322327,10.034099578857422,0.35673606395721436,-0.07989483326673508,-0.023435818031430244,-0.001065264455974102,4.299917
0.11013327538967133,10.04846477508545,0.4572925269603729,-0.07776430249214172,-0.020240023732185364,-0.009587380103766918,4.304909
0.09816227108240128,10.103530883789062,0.47884035110473633,-0.07669904083013535,-0.014913702383637428,-0.02130528911948204,4.309916
0.09576806426048279,10.122684478759766,0.47405192255973816,-0.07243797928094864,-0.009587380103766918,-0.029827404767274857,4.314916
0.05506663769483566,10.137049674987793,0.4213795065879822,-0.06285060197114944,-0.009587380103766918,-0.03515372797846794,4.319914
0.0933738648891449,10.146626472473145,0.40701428055763245,-0.0511326938867569,-0.01065264455974102,-0.041545312851667404,4.324913
0.1149216815829277,10.170568466186523,0.40940847992897034,-0.04048004746437073,-0.017044231295585632,-0.04580637067556381,4.329915
0.14365209639072418,10.196905136108398,0.3758896589279175,-0.02876213937997818,-0.020240023732185364,-0.0511326938867569,4.334921
0.17717093229293823,10.204087257385254,0.35913026332855225,-0.01810949482023716,-0.02130528911948204,-0.058589544147253036,4.339917
0.20111294090747833,10.230423927307129,0.3256114423274994,-0.004261057823896408,-0.026631610468029976,-0.06072007119655609,4.344929
0.23702596127986908,10.218452453613281,0.2968810200691223,0.013848437927663326,-0.03195793181657791,-0.06178533658385277,4.349925
0.24660277366638184,10.187328338623047,0.24899697303771973,0.027696875855326653,-0.04048004746437073,-0.06178533658385277,4.354922
0.26815059781074524,10.232817649841309,0.22026655077934265,0.044741105288267136,-0.04793689772486687,-0.06285060197114944,4.359923
0.2513911724090576,10.223240852355957,0.24899697303771973,0.06285060197114944,-0.06178533658385277,-0.06285060197114944,4.364932
0.2561795711517334,10.189722061157227,0.272938996553421,0.07776430249214172,-0.06924218684434891,-0.0649811327457428,4.369931
0.2561795711517334,10.1753568649292,0.24420857429504395,0.0884169489145279,-0.07243797928094864,-0.06604639440774918,4.374931
0.17477671802043915,10.108319282531738,0.21308395266532898,0.09906959533691406,-0.07456851005554199,-0.0649811327457428,4.379936
0.08858546614646912,9.998186111450195,0.16519992053508759,0.10759170353412628,-0.07456851005554199,-0.06178533658385277,4.384932
0.0933738648891449,9.952696800231934,0.17477671802043915,0.11291802674531937,-0.07669904083013535,-0.058589544147253036,4.389932
0.13168109953403473,9.955090522766113,0.13407529890537262,0.11824434995651245,-0.08096009492874146,-0.052197955548763275,4.394934
0.1843535304069519,9.967061996459961,0.14365209639072418,0.12676647305488586,-0.08202536404132843,-0.04793689772486687,4.399939
0.2346317619085312,10.007762908935547,0.11013327538967133,0.13635385036468506,-0.08415588736534119,-0.04687163606286049,4.404936
0.2753331959247589,9.988609313964844,0.08140286058187485,0.14168016612529755,-0.08735167980194092,-0.049002163112163544,4.409944
0.3208230137825012,9.959878921508789,0.0933738648891449,0.14700649678707123,-0.08735167980194092,-0.049002163112163544,4.414945
0.36152446269989014,9.909601211547852,0.11971008777618408,0.15020228922367096,-0.08948221057653427,-0.052197955548763275,4.419942
0.3447650372982025,9.880870819091797,0.12210428714752197,0.15126754343509674,-0.08522115647792816,-0.0511326938867569,4.424943
0.3280056416988373,9.873687744140625,0.13407529890537262,0.15126754343509674,-0.08202536404132843,-0.04793689772486687,4.429944
0.3208230137825012,9.852140426635742,0.14365209639072418,0.15446333587169647,-0.07776430249214172,-0.04687163606286049,4.43495
0.2753331959247589,9.892841339111328,0.15562310814857483,0.15659387409687042,-0.0788295641541481,-0.04367583990097046,4.439946
0.24181437492370605,9.892841339111328,0.1412578970193863,0.16085493564605713,-0.07669904083013535,-0.04687163606286049,4.444958
0.2106897532939911,9.897629737854004,0.1604115068912506,0.16298545897006989,-0.07669904083013535,-0.04793689772486687,4.449954
0.17717093229293823,9.895236015319824,0.15801730751991272,0.16405072808265686,-0.07563377171754837,-0.04793689772486687,4.454952
0.10534487664699554,9.84495735168457,0.07900865375995636,0.16937704384326935,-0.07350324839353561,-0.0511326938867569,4.459953
0.0454898327589035,9.816226959228516,0.05506663769483566,0.1715075671672821,-0.07030745595693588,-0.05432848632335663,4.464957
0.05746084079146385,9.785101890563965,0.002394201699644327,0.17470335960388184,-0.06817692518234253,-0.0511326938867569,4.46996
0.09816227108240128,9.737217903137207,-0.08619125932455063,0.17363810539245605,-0.06711165606975555,-0.05326322093605995,4.474962
0.10534487664699554,9.749189376831055,-0.14365209639072418,0.1715075671672821,-0.06711165606975555,-0.052197955548763275,4.479965
0.15322890877723694,9.727641105651855,-0.2059013396501541,0.16831177473068237,-0.06604639440774918,-0.05326322093605995,4.484962
0.26096799969673157,9.679757118225098,-0.22026655077934265,0.16085493564605713,-0.06817692518234253,-0.05006742849946022,4.489961
0.3232172429561615,9.646238327026367,-0.26336219906806946,0.148071750998497,-0.07137271761894226,-0.05006742849946022,4.494962
0.3687070608139038,9.624691009521484,-0.35673606395721436,0.13848437368869781,-0.07989483326673508,-0.055393751710653305,4.499968
0.36152446269989014,9.619902610778809,-0.3495534360408783,0.12357067316770554,-0.092678003013134,-0.058589544147253036,4.504965
0.3663128614425659,9.646238327026367,-0.33039984107017517,0.10546118021011353,-0.1065264418721199,-0.06391586363315582,4.509974
0.3471592366695404,9.651026725769043,-0.26336219906806946,0.0884169489145279,-0.11930961906909943,-0.07030745595693588,4.514974
0.30885201692581177,9.68694019317627,-0.2346317619085312,0.06817692518234253,-0.12889699637889862,-0.07563377171754837,4.519971
0.2585737705230713,9.75397777557373,-0.15322890877723694,0.04793689772486687,-0.13528858125209808,-0.08415588736534119,4.52497
0.2513911724090576,9.794678688049316,-0.06703764945268631,0.02556634694337845,-0.13848437368869781,-0.09374327212572098,4.529972
0.2059013396501541,9.856928825378418,-0.016759412363171577,0.003195793367922306,-0.13741910457611084,-0.10120011866092682,4.534977
0.19632454216480255,9.852140426635742,0.047884032130241394,-0.015978965908288956,-0.13635385036468506,-0.11185276508331299,4.539976
0.2082955539226532,9.856928825378418,0.09576806426048279,-0.03621898964047432,-0.1342233121395111,-0.11930961906909943,4.544988
0.21547815203666687,9.892841339111328,0.17717093229293823,-0.058589544147253036,-0.13315805792808533,-0.12783172726631165,4.549982
0.21787235140800476,9.907206535339355,0.28969839215278625,-0.07563377171754837,-0.13209278881549835,-0.13315805792808533,4.55498
0.22266076505184174,9.911994934082031,0.33758243918418884,-0.0884169489145279,-0.13209278881549835,-0.13635385036468506,4.55998
0.22266076505184174,9.90241813659668,0.45250412821769714,-0.09800432622432709,-0.12889699637889862,-0.14061491191387177,4.564986
0.23942017555236816,9.914389610290527,0.586579442024231,-0.10439591109752655,-0.12676647305488586,-0.14274543523788452,4.569988
0.19393034279346466,9.916783332824707,0.5961562395095825,-0.1065264418721199,-0.12463593482971191,-0.1438107043504715,4.574989
0.14844051003456116,9.919178009033203,0.7326257228851318,-0.10759170353412628,-0.12783172726631165,-0.13848437368869781,4.579993
0.10773907601833344,9.921571731567383,0.7757213711738586,-0.1022653877735138,-0.1299622654914856,-0.13209278881549835,4.58499
0.10055647045373917,9.892841339111328,0.8571242094039917,-0.09800432622432709,-0.1299622654914856,-0.12676647305488586,4.589989
0.07422025501728058,9.873687744140625,0.9313444495201111,-0.09054747968912125,-0.13102751970291138,-0.11930961906909943,4.59499
0.05985504388809204,9.854534149169922,0.9840168952941895,-0.08309062570333481,-0.12463593482971191,-0.10972223430871964,4.599996
0.014365210197865963,9.821015357971191,1.0247182846069336,-0.07456851005554199,-0.12144014239311218,-0.1022653877735138,4.604994
-0.011971008032560349,9.794678688049316,0.9911994934082031,-0.06604639440774918,-0.11504855751991272,-0.09693906456232071,4.610003
-0.040701430290937424,9.81143856048584,0.9457096457481384,-0.05326322093605995,-0.11185276508331299,-0.08735167980194092,4.615002
-0.021547814831137657,9.816226959228516,0.9720458984375,-0.04048004746437073,-0.11398329585790634,-0.07563377171754837,4.62
-0.004788403399288654,9.821015357971191,0.9840168952941895,-0.02876213937997818,-0.11291802674531937,-0.0649811327457428,4.624999
0.016759412363171577,9.823410034179688,0.9768342971801758,-0.017044231295585632,-0.1065264418721199,-0.06072007119655609,4.63
0.031124621629714966,9.806650161743164,0.9241618514060974,-0.006391586735844612,-0.10120011866092682,-0.05432848632335663,4.635006
0.0071826050989329815,9.773131370544434,0.8690952062606812,-0.002130528911948204,-0.09161274135112762,-0.04793689772486687,4.640005
0.038307227194309235,9.751583099365234,0.8427590131759644,-0.001065264455974102,-0.08202536404132843,-0.03621898964047432,4.645015
0.026336219161748886,9.75637149810791,0.8355764150619507,-0.002130528911948204,-0.07137271761894226,-0.03195793181657791,4.65001
0.0454898327589035,9.732429504394531,0.8307880163192749,-0.003195793367922306,-0.06178533658385277,-0.02556634694337845,4.655008
0.07422025501728058,9.703699111938477,0.7709329724311829,-0.007456851191818714,-0.0511326938867569,-0.02130528911948204,4.660009
0.06703764945268631,9.694122314453125,0.7110779285430908,-0.011717909015715122,-0.04580637067556381,-0.01810949482023716,4.665017
0.11252748221158981,9.667786598205566,0.7038952708244324,-0.015978965908288956,-0.04261057823896408,-0.012783173471689224,4.670018
0.12689268589019775,9.68694019317627,0.6799532771110535,-0.019174760207533836,-0.04367583990097046,-0.00532632227987051,4.675023
0.12928688526153564,9.66299819946289,0.6991068720817566,-0.02130528911948204,-0.04793689772486687,0.0,4.680022
0.14844051003456116,9.636661529541016,0.730231523513794,-0.026631610468029976,-0.049002163112163544,0.00532632227987051,4.685019
0.21547815203666687,9.653421401977539,0.7565677165985107,-0.03302319720387459,-0.049002163112163544,0.007456851191818714,4.690018
0.272938996553421,9.674968719482422,0.7661445140838623,-0.03302319720387459,-0.05006742849946022,0.012783173471689224,4.69502
0.3256114423274994,9.720458984375,0.7350199222564697,-0.03195793181657791,-0.049002163112163544,0.017044231295585632,4.700027
0.3758896589279175,9.761159896850586,0.7661445140838623,-0.029827404767274857,-0.049002163112163544,0.019174760207533836,4.705025
0.40940847992897034,9.75397777557373,0.7445967197418213,-0.02556634694337845,-0.052197955548763275,0.019174760207533836,4.710033
0.4596867263317108,9.718064308166504,0.7158663272857666,-0.015978965908288956,-0.055393751710653305,0.01810949482023716,4.715031
0.49799394607543945,9.730035781860352,0.7398083209991455,-0.006391586735844612,-0.06072007119655609,0.017044231295585632,4.720028
0.5195417404174805,9.694122314453125,0.7805097699165344,0.00532632227987051,-0.06178533658385277,0.013848437927663326,4.725029
0.5913678407669067,9.636661529541016,0.7350199222564697,0.01810949482023716,-0.06072007119655609,0.013848437927663326,4.730029
0.6033388376235962,9.655815124511719,0.7757213711738586,0.027696875855326653,-0.05965480953454971,0.01065264455974102,4.735035
0.6272808313369751,9.672574996948242,0.7805097699165344,0.03195793181657791,-0.0511326938867569,0.006391586735844612,4.74004
0.6320692300796509,9.636661529541016,0.7374141216278076,0.03834952041506767,-0.04580637067556381,0.002130528911948204,4.745044
0.6344634294509888,9.564835548400879,0.6440402865409851,0.044741105288267136,-0.041545312851667404,0.002130528911948204,4.750039
0.6320692300796509,9.588777542114258,0.667982280254364,0.04367583990097046,-0.041545312851667404,0.003195793367922306,4.755038
0.6368576288223267,9.57441234588623,0.5602431893348694,0.03834952041506767,-0.03621898964047432,-0.001065264455974102,4.760038
0.6320692300796509,9.459490776062012,0.586579442024231,0.034088462591171265,-0.041545312851667404,-0.007456851191818714,4.765044
0.608127236366272,9.370905876159668,0.6009446382522583,0.027696875855326653,-0.04261057823896408,-0.008522115647792816,4.770044
0.5746083855628967,9.296685218811035,0.6177040338516235,0.019174760207533836,-0.03941478207707405,-0.007456851191818714,4.775047
0.5722141861915588,9.282320022583008,0.6775590777397156,0.007456851191818714,-0.04261057823896408,-0.008522115647792816,4.78005
0.5674257874488831,9.296685218811035,0.7206547260284424,-0.00532632227987051,-0.04367583990097046,-0.008522115647792816,4.785048
0.545877993106842,9.327810287475586,0.8140285611152649,-0.02130528911948204,-0.04367583990097046,-0.007456851191818714,4.790048
0.569819986820221,9.390059471130371,0.9169792532920837,-0.030892668291926384,-0.044741105288267136,-0.01065264455974102,4.795048
0.569819986820221,9.497797966003418,0.9313444495201111,-0.04048004746437073,-0.04687163606286049,-0.015978965908288956,4.800054
0.5386953949928284,9.50498104095459,0.9648633003234863,-0.044741105288267136,-0.0511326938867569,-0.014913702383637428,4.80505
0.5123591423034668,9.533711433410645,0.9648633003234863,-0.044741105288267136,-0.052197955548763275,-0.015978965908288956,4.810062
0.5434837937355042,9.605537414550781,1.0223240852355957,-0.04580637067556381,-0.058589544147253036,-0.017044231295585632,4.815059
0.5602431893348694,9.634267807006836,1.0223240852355957,-0.03941478207707405,-0.06285060197114944,-0.02130528911948204,4.820057
0.5482721924781799,9.59596061706543,0.9840168952941895,-0.02876213937997818,-0.0649811327457428,-0.026631610468029976,4.825056
0.5482721924781799,9.579200744628906,0.9074024558067322,-0.020240023732185364,-0.06817692518234253,-0.030892668291926384,4.830058
0.5434837937355042,9.516951560974121,0.8427590131759644,-0.008522115647792816,-0.07137271761894226,-0.03195793181657791,4.835064
0.5793967843055725,9.500192642211914,0.6823474764823914,0.00532632227987051,-0.07563377171754837,-0.03302319720387459,4.840063
0.5841852426528931,9.390059471130371,0.5410895943641663,0.020240023732185364,-0.07669904083013535,-0.03195793181657791,4.845072
0.5841852426528931,9.35654067993164,0.3926490843296051,0.03302319720387459,-0.07989483326673508,-0.03195793181657791,4.85007
0.5602431893348694,9.344569206237793,0.2753331959247589,0.03941478207707405,-0.08202536404132843,-0.03302319720387459,4.855066
0.586579442024231,9.26795482635498,0.20350714027881622,0.049002163112163544,-0.08735167980194092,-0.03195793181657791,4.860066
0.6368576288223267,9.279925346374512,0.10773907601833344,0.05645901337265968,-0.09161274135112762,-0.026631610468029976,4.865079
0.6967126727104187,9.299078941345215,0.08858546614646912,0.05965480953454971,-0.09480853378772736,-0.020240023732185364,4.870071
0.7398083209991455,9.301473617553711,0.1388636976480484,0.05432848632335663,-0.10120011866092682,-0.017044231295585632,4.87508
0.751779317855835,9.332598686218262,0.17956513166427612,0.04687163606286049,-0.10013485699892044,-0.017044231295585632,4.880079
0.7852981686592102,9.344569206237793,0.21308395266532898,0.03621898964047432,-0.09374327212572098,-0.011717909015715122,4.885076
0.8068459630012512,9.411606788635254,0.23942017555236816,0.020240023732185364,-0.09054747968912125,-0.008522115647792816,4.890075
0.7876923680305481,9.493009567260742,0.33518823981285095,0.003195793367922306,-0.08735167980194092,-0.007456851191818714,4.895076
0.7709329724311829,9.569623947143555,0.4644751250743866,-0.011717909015715122,-0.08202536404132843,-0.008522115647792816,4.900083
0.7398083209991455,9.605537414550781,0.5339069962501526,-0.029827404767274857,-0.07350324839353561,-0.012783173471689224,4.90508
0.6919242739677429,9.634267807006836,0.6416460275650024,-0.04687163606286049,-0.06817692518234253,-0.015978965908288956,4.910091
0.6368576288223267,9.706093788146973,0.7565677165985107,-0.06178533658385277,-0.06391586363315582,-0.017044231295585632,4.915088
0.6320692300796509,9.801861763000488,0.8236053586006165,-0.07776430249214172,-0.05965480953454971,-0.02130528911948204,4.920085
0.6057330369949341,9.859322547912598,0.8954314589500427,-0.08735167980194092,-0.052197955548763275,-0.023435818031430244,4.925085
0.569819986820221,9.907206535339355,0.9457096457481384,-0.10013485699892044,-0.04367583990097046,-0.026631610468029976,4.930086
0.5770025849342346,9.967061996459961,0.9840168952941895,-0.11291802674531937,-0.03515372797846794,-0.026631610468029976,4.935093
0.6057330369949341,10.034099578857422,1.0199298858642578,-0.12144014239311218,-0.027696875855326653,-0.027696875855326653,4.9401
0.5985504388809204,10.062829971313477,1.0319008827209473,-0.1203748807311058,-0.023435818031430244,-0.029827404767274857,4.945101
0.6488286852836609,10.137049674987793,1.039083480834961,-0.11930961906909943,-0.023435818031430244,-0.03195793181657791,4.950096
0.7206547260284424,10.177751541137695,1.0678139925003052,-0.11185276508331299,-0.020240023732185364,-0.034088462591171265,4.955093
0.7613561153411865,10.216058731079102,1.0462661981582642,-0.09800432622432709,-0.023435818031430244,-0.037284255027770996,4.960095
0.7852981686592102,10.237606048583984,1.01753568649292,-0.08735167980194092,-0.020240023732185364,-0.04261057823896408,4.9651
0.849941611289978,10.204087257385254,0.9026140570640564,-0.07350324839353561,-0.02130528911948204,-0.04687163606286049,4.970102
0.8427590131759644,10.187328338623047,0.8188169598579407,-0.05752427875995636,-0.02556634694337845,-0.0511326938867569,4.975107
0.8379706144332886,10.132261276245117,0.727837324142456,-0.04048004746437073,-0.030892668291926384,-0.055393751710653305,4.980108
0.7948749661445618,10.074800491333008,0.6368576288223267,-0.026631610468029976,-0.03302319720387459,-0.058589544147253036,4.985104
0.7469909191131592,10.041281700134277,0.5578489899635315,-0.013848437927663326,-0.03621898964047432,-0.06072007119655609,4.990103
0.6991068720817566,9.981427192687988,0.4836287498474121,-0.008522115647792816,-0.03515372797846794,-0.06391586363315582,4.995107
0.6200982332229614,9.943120002746582,0.395043283700943,-0.004261057823896408,-0.034088462591171265,-0.06604639440774918,5.000112
0.5506663918495178,9.871294021606445,0.3256114423274994,0.001065264455974102,-0.029827404767274857,-0.06924218684434891,5.005108
0.49799394607543945,9.768342971801758,0.21308395266532898,0.00532632227987051,-0.02876213937997818,-0.07030745595693588,5.010119
0.44771572947502136,9.713275909423828,0.16759411990642548,0.008522115647792816,-0.027696875855326653,-0.07350324839353561,5.015117
0.395043283700943,9.672574996948242,0.08379705995321274,0.006391586735844612,-0.02556634694337845,-0.07456851005554199,5.020115
0.35913026332855225,9.605537414550781,-0.011971008032560349,0.00532632227987051,-0.026631610468029976,-0.0788295641541481,5.025115
0.3256114423274994,9.50498104095459,-0.08619125932455063,0.004261057823896408,-0.027696875855326653,-0.08415588736534119,5.030115
0.31364041566848755,9.48343276977539,-0.15801730751991272,0.002130528911948204,-0.02556634694337845,-0.08309062570333481,5.035121
0.31124621629714966,9.44991397857666,-0.17477671802043915,-0.003195793367922306,-0.02556634694337845,-0.0788295641541481,5.040122
0.2753331959247589,9.409213066101074,-0.20111294090747833,-0.007456851191818714,-0.026631610468029976,-0.07563377171754837,5.04513
0.2322375625371933,9.320627212524414,-0.17477671802043915,-0.011717909015715122,-0.023435818031430244,-0.07669904083013535,5.050125
0.20350714027881622,9.32302188873291,-0.1412578970193863,-0.017044231295585632,-0.022370552644133568,-0.07350324839353561,5.055123
0.19393034279346466,9.334992408752441,-0.1364694982767105,-0.014913702383637428,-0.027696875855326653,-0.06924218684434891,5.060124
0.15801730751991272,9.311050415039062,-0.1628057211637497,-0.01065264455974102,-0.02876213937997818,-0.06817692518234253,5.065128
0.16519992053508759,9.294290542602539,-0.13168109953403473,-0.01065264455974102,-0.02876213937997818,-0.06711165606975555,5.070129
0.13168109953403473,9.260771751403809,-0.11971008777618408,-0.013848437927663326,-0.024501081556081772,-0.0649811327457428,5.075136
0.05746084079146385,9.239224433898926,-0.090979665517807,-0.014913702383637428,-0.023435818031430244,-0.06072007119655609,5.080136
-0.002394201699644327,9.27034854888916,-0.035913024097681046,-0.01810949482023716,-0.01810949482023716,-0.05432848632335663,5.085133
-0.028730420395731926,9.337387084960938,0.035913024097681046,-0.019174760207533836,-0.012783173471689224,-0.04687163606286049,5.090133
-0.0933738648891449,9.349357604980469,0.0694318488240242,-0.014913702383637428,-0.009587380103766918,-0.04580637067556381,5.095134
-0.12449848651885986,9.361329078674316,0.07661445438861847,-0.011717909015715122,-0.004261057823896408,-0.04048004746437073,5.10014
-0.090979665517807,9.32541561126709,0.07900865375995636,-0.009587380103766918,0.001065264455974102,-0.03621898964047432,5.105136
-0.08379705995321274,9.29189682006836,0.07422025501728058,-0.007456851191818714,0.004261057823896408,-0.030892668291926384,5.110147
-0.07422025501728058,9.258378028869629,0.05267243832349777,-0.00532632227987051,0.008522115647792816,-0.02556634694337845,5.115146
-0.040701430290937424,9.20091724395752,0.0071826050989329815,-0.007456851191818714,0.014913702383637428,-0.020240023732185364,5.120143
-0.0454898327589035,9.133879661560059,-0.05267243832349777,-0.009587380103766918,0.017044231295585632,-0.012783173471689224,5.125142
-0.031124621629714966,9.100360870361328,-0.05746084079146385,-0.012783173471689224,0.017044231295585632,-0.002130528911948204,5.130144
0.019153613597154617,9.129091262817383,-0.08140286058187485,-0.015978965908288956,0.01810949482023716,0.006391586735844612,5.13515
0.05506663769483566,9.14345645904541,-0.13407529890537262,-0.015978965908288956,0.017044231295585632,0.011717909015715122,5.140148
0.10773907601833344,9.126696586608887,-0.1867477297782898,-0.015978965908288956,0.013848437927663326,0.01810949482023716,5.145159
0.15562310814857483,9.155426979064941,-0.15801730751991272,-0.02556634694337845,0.014913702383637428,0.022370552644133568,5.150153
0.22744916379451752,9.2033109664917,-0.2106897532939911,-0.03515372797846794,0.017044231295585632,0.02876213937997818,5.155152
0.26336219906806946,9.188945770263672,-0.1867477297782898,-0.04367583990097046,0.017044231295585632,0.03195793181657791,5.160152
0.2777273952960968,9.229647636413574,-0.15322890877723694,-0.05752427875995636,0.022370552644133568,0.03515372797846794,5.165158
0.3471592366695404,9.287108421325684,-0.15801730751991272,-0.06924218684434891,0.022370552644133568,0.037284255027770996,5.170157
0.3495534360408783,9.32541561126709,-0.08858546614646912,-0.07669904083013535,0.01810949482023716,0.03515372797846794,5.175164
0.395043283700943,9.445125579833984,-0.05267243832349777,-0.08522115647792816,0.019174760207533836,0.03621898964047432,5.180165
0.4620809257030487,9.536105155944824,0.05027823522686958,-0.09161274135112762,0.01810949482023716,0.03302319720387459,5.185162
0.4620809257030487,9.593565940856934,0.090979665517807,-0.092678003013134,0.01810949482023716,0.029827404767274857,5.190161
0.4596867263317108,9.641449928283691,0.14365209639072418,-0.09587379544973373,0.02130528911948204,0.02556634694337845,5.195162
0.4572925269603729,9.670180320739746,0.21547815203666687,-0.09480853378772736,0.022370552644133568,0.02130528911948204,5.200169
0.4596867263317108,9.68694019317627,0.26096799969673157,-0.09161274135112762,0.023435818031430244,0.023435818031430244,5.205167
0.40940847992897034,9.797073364257812,0.395043283700943,-0.09161274135112762,0.03302319720387459,0.023435818031430244,5.210176
0.37828385829925537,9.84495735168457,0.4620809257030487,-0.0884169489145279,0.04367583990097046,0.020240023732185364,5.215174
0.3495534360408783,9.825803756713867,0.5219359993934631,-0.0788295641541481,0.05006742849946022,0.01810949482023716,5.220172
0.3447650372982025,9.8784761428833,0.5506663918495178,-0.06817692518234253,0.05432848632335663,0.02130528911948204,5.225171
0.3902548849582672,9.880870819091797,0.5315127968788147,-0.05965480953454971,0.058589544147253036,0.024501081556081772,5.230174
0.4429273009300232,9.890447616577148,0.5913678407669067,-0.04687163606286049,0.06178533658385277,0.03195793181657791,5.235178
0.4405331015586853,9.959878921508789,0.6368576288223267,-0.03515372797846794,0.06391586363315582,0.041545312851667404,5.240178
0.507570743560791,10.005369186401367,0.6943184733390808,-0.022370552644133568,0.06817692518234253,0.04580637067556381,5.245187
0.5482721924781799,10.041281700134277,0.8020575642585754,-0.01065264455974102,0.07243797928094864,0.04687163606286049,5.250181
0.5985504388809204,10.086771965026855,0.849941611289978,0.004261057823896408,0.07669904083013535,0.0511326938867569,5.25518
0.6320692300796509,10.137049674987793,0.8810662031173706,0.020240023732185364,0.0788295641541481,0.055393751710653305,5.260181
0.6607996821403503,10.160991668701172,0.8786720037460327,0.03302319720387459,0.08522115647792816,0.05645901337265968,5.265191
0.6344634294509888,10.199298858642578,0.8906430602073669,0.04793689772486687,0.0884169489145279,0.058589544147253036,5.270187
0.6129156351089478,10.20648193359375,0.8595184087753296,0.0649811327457428,0.08948221057653427,0.06072007119655609,5.275196
0.6105214357376099,10.15141487121582,0.7829039692878723,0.07776430249214172,0.09054747968912125,0.06072007119655609,5.280194
0.5889736413955688,10.127472877502441,0.7445967197418213,0.08735167980194092,0.092678003013134,0.06072007119655609,5.28519
0.5650315880775452,10.132261276245117,0.6703764796257019,0.092678003013134,0.09587379544973373,0.05965480953454971,5.29019
0.5554547905921936,10.14902114868164,0.5889736413955688,0.10013485699892044,0.10013485699892044,0.05965480953454971,5.295192
0.5841852426528931,10.11789608001709,0.47644615173339844,0.1022653877735138,0.10120011866092682,0.05752427875995636,5.300198
0.6129156351089478,10.093954086303711,0.363918662071228,0.1022653877735138,0.09693906456232071,0.058589544147253036,5.305194
0.6177040338516235,10.098742485046387,0.31842881441116333,0.10013485699892044,0.09161274135112762,0.058589544147253036,5.310207
0.6248866319656372,10.0580415725708,0.26096799969673157,0.1022653877735138,0.08628641813993454,0.05752427875995636,5.315202
0.6536170840263367,10.04846477508545,0.21547815203666687,0.10333064943552017,0.08096009492874146,0.05645901337265968,5.3202
0.6631938815116882,10.036493301391602,0.16519992053508759,0.10439591109752655,0.07456851005554199,0.05432848632335663,5.325201
0.7038952708244324,10.002974510192871,0.10534487664699554,0.10546118021011353,0.06604639440774918,0.05326322093605995,5.330201
0.6703764796257019,9.95748519897461,0.05506663769483566,0.10865697264671326,0.05965480953454971,0.052197955548763275,5.335207
0.6655880808830261,9.950302124023438,0.0454898327589035,0.10972223430871964,0.052197955548763275,0.049002163112163544,5.340207
0.6584054827690125,9.897629737854004,-0.014365210197865963,0.1065264418721199,0.04793689772486687,0.04687163606286049,5.345215
0.6584054827690125,9.847352027893066,-0.038307227194309235,0.10333064943552017,0.04048004746437073,0.04687163606286049,5.350211
0.6512228846549988,9.832986831665039,-0.06224924325942993,0.10013485699892044,0.03515372797846794,0.05006742849946022,5.35521
0.6368576288223267,9.86889934539795,0.004788403399288654,0.092678003013134,0.029827404767274857,0.05432848632335663,5.36021
0.6607996821403503,9.914389610290527,0.08379705995321274,0.08522115647792816,0.026631610468029976,0.055393751710653305,5.365215
0.6631938815116882,9.90241813659668,0.1412578970193863,0.07669904083013535,0.023435818031430244,0.055393751710653305,5.370215
0.6248866319656372,9.919178009033203,0.2298433631658554,0.06604639440774918,0.02876213937997818,0.05645901337265968,5.375223
0.6129156351089478,9.93354320526123,0.3232172429561615,0.05752427875995636,0.029827404767274857,0.058589544147253036,5.380222
0.5985504388809204,9.947908401489258,0.3711012601852417,0.052197955548763275,0.02876213937997818,0.055393751710653305,5.38522
0.5578489899635315,9.950302124023438,0.4165911078453064,0.04580637067556381,0.029827404767274857,0.05432848632335663,5.390218
0.5291185975074768,9.959878921508789,0.5051765441894531,0.04261057823896408,0.029827404767274857,0.052197955548763275,5.39522
0.47405192255973816,9.96945571899414,0.5363011956214905,0.03515372797846794,0.034088462591171265,0.0511326938867569,5.400226
0.43335050344467163,10.02452278137207,0.5841852426528931,0.02876213937997818,0.03834952041506767,0.0511326938867569,5.405223
0.4141969084739685,10.08198356628418,0.6655880808830261,0.023435818031430244,0.04367583990097046,0.04687163606286049,5.410233
0.33518823981285095,10.120290756225586,0.706289529800415,0.015978965908288956,0.052197955548763275,0.04261057823896408,5.415232
0.2825157940387726,10.14902114868164,0.706289529800415,0.011717909015715122,0.058589544147253036,0.04048004746437073,5.420229
0.26096799969673157,10.180145263671875,0.7086837291717529,0.004261057823896408,0.06391586363315582,0.03621898964047432,5.425228
0.22026655077934265,10.17296314239502,0.7661445140838623,0.0,0.07030745595693588,0.034088462591171265,5.43023
0.181959331035614,10.20648193359375,0.8307880163192749,-0.00532632227987051,0.07669904083013535,0.030892668291926384,5.435237
0.1604115068912506,10.216058731079102,0.811634361743927,-0.007456851191818714,0.08202536404132843,0.027696875855326653,5.440234
0.15083470940589905,10.199298858642578,0.8403648138046265,-0.00532632227987051,0.08735167980194092,0.024501081556081772,5.445244
0.13407529890537262,10.204087257385254,0.8858546018600464,-0.004261057823896408,0.09161274135112762,0.02130528911948204,5.450239
0.0933738648891449,10.201693534851074,0.9361328482627869,-0.003195793367922306,0.09161274135112762,0.022370552644133568,5.455238
0.038307227194309235,10.163386344909668,0.9720458984375,0.00532632227987051,0.08735167980194092,0.020240023732185364,5.460238
0.009576806798577309,10.163386344909668,0.9481038451194763,0.013848437927663326,0.08309062570333481,0.024501081556081772,5.465243
-0.021547814831137657,10.062829971313477,0.9576807022094727,0.026631610468029976,0.0788295641541481,0.02876213937997818,5.470245
-0.05506663769483566,9.940725326538086,0.9313444495201111,0.04048004746437073,0.07243797928094864,0.029827404767274857,5.475251
-0.06703764945268631,9.86650562286377,0.9313444495201111,0.05006742849946022,0.06604639440774918,0.03515372797846794,5.480251
-0.06224924325942993,9.828198432922363,0.9528923034667969,0.05645901337265968,0.06285060197114944,0.044741105288267136,5.485248
-0.047884032130241394,9.794678688049316,0.9768342971801758,0.06072007119655609,0.06072007119655609,0.05432848632335663,5.490247
-0.016759412363171577,9.6989107131958,0.9552865028381348,0.0649811327457428,0.06285060197114944,0.06285060197114944,5.495248
0.0,9.605537414550781,0.8810662031173706,0.07243797928094864,0.06072007119655609,0.07350324839353561,5.500255
0.05985504388809204,9.57441234588623,0.9050082564353943,0.07563377171754837,0.06178533658385277,0.08415588736534119,5.505253
0.1364694982767105,9.57201862335205,0.9169792532920837,0.08202536404132843,0.05965480953454971,0.09480853378772736,5.510261
0.2106897532939911,9.512163162231445,0.8930372595787048,0.08735167980194092,0.058589544147253036,0.10333064943552017,5.51526
0.2825157940387726,9.47146224975586,0.8188169598579407,0.09161274135112762,0.05752427875995636,0.11291802674531937,5.520258
0.3758896589279175,9.461885452270508,0.8140285611152649,0.09054747968912125,0.06072007119655609,0.12357067316770554,5.525257
0.4405331015586853,9.478644371032715,0.811634361743927,0.09161274135112762,0.06391586363315582,0.13315805792808533,5.530259
0.48602294921875,9.476250648498535,0.828393816947937,0.08948221057653427,0.06391586363315582,0.14274543523788452,5.535265
0.5386953949928284,9.493009567260742,0.7805097699165344,0.08735167980194092,0.06604639440774918,0.14913702011108398,5.540264
0.5363011956214905,9.502586364746094,0.8427590131759644,0.08202536404132843,0.07030745595693588,0.15446333587169647,5.545273
0.5195417404174805,9.567230224609375,0.8834604024887085,0.07776430249214172,0.07563377171754837,0.1576591283082962,5.550267
0.48602294921875,9.648633003234863,0.8595184087753296,0.07243797928094864,0.08202536404132843,0.15978966653347015,5.555266
0.45010992884635925,9.655815124511719,0.871489405632019,0.06391586363315582,0.09161274135112762,0.1576591283082962,5.560267
0.43095630407333374,9.66539192199707,0.8475474119186401,0.055393751710653305,0.09800432622432709,0.15552860498428345,5.565272
0.40462008118629456,9.684545516967773,0.8643068075180054,0.04367583990097046,0.1065264418721199,0.15552860498428345,5.570273
0.40222588181495667,9.727641105651855,0.7805097699165344,0.024501081556081772,0.11504855751991272,0.1533980816602707,5.575284
0.40462008118629456,9.806650161743164,0.6416460275650024,0.013848437927663326,0.11717908829450607,0.15020228922367096,5.580283
0.33758243918418884,9.835380554199219,0.7661445140838623,0.024501081556081772,0.1065264418721199,0.14168016612529755,5.585277
0.3758896589279175,9.952696800231934,0.7852981686592102,0.023435818031430244,0.1022653877735138,0.13315805792808533,5.590276
0.35673606395721436,9.981427192687988,0.7805097699165344,0.014913702383637428,0.09587379544973373,0.11930961906909943,5.595278
0.37828385829925537,9.950302124023438,0.811634361743927,0.012783173471689224,0.0884169489145279,0.1065264418721199,5.600284
0.4213795065879822,9.931148529052734,0.7972691655158997,0.01065264455974102,0.08202536404132843,0.09906959533691406,5.60528
0.4189853072166443,9.96945571899414,0.7374141216278076,0.011717909015715122,0.07456851005554199,0.09161274135112762,5.610289
0.42856210470199585,9.983820915222168,0.6991068720817566,0.013848437927663326,0.06391586363315582,0.08096009492874146,5.615289
0.42377370595932007,9.952696800231934,0.6751648783683777,0.015978965908288956,0.05326322093605995,0.07030745595693588,5.620287
0.42856210470199585,9.93593692779541,0.6560112833976746,0.02130528911948204,0.04048004746437073,0.06391586363315582,5.625287
0.4381389021873474,9.909601211547852,0.6248866319656372,0.02876213937997818,0.02876213937997818,0.05432848632335663,5.630288
0.4118026793003082,9.859322547912598,0.5985504388809204,0.037284255027770996,0.020240023732185364,0.04687163606286049,5.635293
0.3902548849582672,9.832986831665039,0.5985504388809204,0.04793689772486687,0.007456851191818714,0.04048004746437073,5.640293
0.3519476354122162,9.801861763000488,0.5889736413955688,0.06285060197114944,0.001065264455974102,0.037284255027770996,5.645302
0.31842881441116333,9.761159896850586,0.586579442024231,0.07243797928094864,-0.006391586735844612,0.03195793181657791,5.650297
0.23942017555236816,9.72285270690918,0.5985504388809204,0.08202536404132843,-0.014913702383637428,0.029827404767274857,5.655296
0.26815059781074524,9.627084732055664,0.5099649429321289,0.08948221057653427,-0.01810949482023716,0.029827404767274857,5.660296
0.22744916379451752,9.583989143371582,0.4908113479614258,0.09480853378772736,-0.01810949482023716,0.027696875855326653,5.665301
0.17956513166427612,9.488221168518066,0.45010992884635925,0.09800432622432709,-0.019174760207533836,0.027696875855326653,5.6703
0.12449848651885986,9.411606788635254,0.3974374830722809,0.09693906456232071,-0.017044231295585632,0.03195793181657791,5.675315
0.11013327538967133,9.378087997436523,0.3663128614425659,0.09374327212572098,-0.015978965908288956,0.03621898964047432,5.680308
0.1604115068912506,9.35893440246582,0.33758243918418884,0.08735167980194092,-0.014913702383637428,0.03941478207707405,5.685306
0.1604115068912506,9.387664794921875,0.33039984107017517,0.07776430249214172,-0.011717909015715122,0.03941478207707405,5.690305
0.1867477297782898,9.342175483703613,0.3423708379268646,0.06817692518234253,-0.00532632227987051,0.04048004746437073,5.695306
0.19153612852096558,9.27034854888916,0.3495534360408783,0.05645901337265968,0.002130528911948204,0.03941478207707405,5.700313
0.17717093229293823,9.191340446472168,0.3280056416988373,0.037284255027770996,0.009587380103766918,0.04261057823896408,5.70531
0.13168109953403473,9.210494041442871,0.33039984107017517,0.020240023732185364,0.013848437927663326,0.04793689772486687,5.710318
0.05985504388809204,9.239224433898926,0.3232172429561615,0.001065264455974102,0.017044231295585632,0.0511326938867569,5.715318
-0.002394201699644327,9.253589630126953,0.3495534360408783,-0.012783173471689224,0.019174760207533836,0.05326322093605995,5.720316
-0.0694318488240242,9.224859237670898,0.3711012601852417,-0.024501081556081772,0.019174760207533836,0.05432848632335663,5.725315
-0.14604631066322327,9.315838813781738,0.3232172429561615,-0.041545312851667404,0.022370552644133568,0.06178533658385277,5.730332
-0.15562310814857483,9.425971984863281,0.3471592366695404,-0.06072007119655609,0.026631610468029976,0.06391586363315582,5.735322
-0.17238251864910126,9.452308654785156,0.36152446269989014,-0.07776430249214172,0.029827404767274857,0.0649811327457428,5.74032
-0.19153612852096558,9.425971984863281,0.31603461503982544,-0.092678003013134,0.029827404767274857,0.06817692518234253,5.745332
-0.19632454216480255,9.524134635925293,0.29209262132644653,-0.10865697264671326,0.030892668291926384,0.07030745595693588,5.750326
-0.17477671802043915,9.533711433410645,0.30885201692581177,-0.1203748807311058,0.029827404767274857,0.07137271761894226,5.755325
-0.1412578970193863,9.50737476348877,0.2513911724090576,-0.12889699637889862,0.02130528911948204,0.07137271761894226,5.760325
-0.09816227108240128,9.519346237182617,0.19871874153614044,-0.13741910457611084,0.013848437927663326,0.07030745595693588,5.76533
-0.028730420395731926,9.576807022094727,0.22744916379451752,-0.14594122767448425,0.00532632227987051,0.06817692518234253,5.770329
0.021547814831137657,9.591172218322754,0.19153612852096558,-0.15233281254768372,-0.004261057823896408,0.06817692518234253,5.775339
0.08858546614646912,9.639056205749512,0.23942017555236816,-0.16085493564605713,-0.013848437927663326,0.06711165606975555,5.780337
0.1388636976480484,9.701305389404297,0.26575639843940735,-0.16831177473068237,-0.02130528911948204,0.06604639440774918,5.785334
0.16998831927776337,9.746794700622559,0.2825157940387726,-0.1715075671672821,-0.027696875855326653,0.06391586363315582,5.790333
0.2106897532939911,9.794678688049316,0.31364041566848755,-0.17257283627986908,-0.034088462591171265,0.05965480953454971,5.795335
0.24420857429504395,9.849745750427246,0.304063618183136,-0.17470335960388184,-0.037284255027770996,0.05326322093605995,5.800341
0.2106897532939911,9.892841339111328,0.37828385829925537,-0.1757686287164688,-0.044741105288267136,0.04580637067556381,5.805339
0.2059013396501541,9.959878921508789,0.4572925269603729,-0.17363810539245605,-0.04580637067556381,0.03941478207707405,5.810346
0.2106897532939911,9.96945571899414,0.5195417404174805,-0.16618125140666962,-0.04793689772486687,0.029827404767274857,5.815347
0.19871874153614044,9.988609313964844,0.6272808313369751,-0.15659387409687042,-0.04793689772486687,0.024501081556081772,5.820345
0.1843535304069519,9.964667320251465,0.6607996821403503,-0.14913702011108398,-0.04367583990097046,0.022370552644133568,5.825343
0.16759411990642548,9.971850395202637,0.6967126727104187,-0.14061491191387177,-0.03941478207707405,0.022370552644133568,5.830353
0.15562310814857483,9.99339771270752,0.7206547260284424,-0.12676647305488586,-0.03834952041506767,0.02130528911948204,5.835352
0.12449848651885986,9.981427192687988,0.689530074596405,-0.11185276508331299,-0.03515372797846794,0.017044231295585632,5.840351
0.1149216815829277,9.926360130310059,0.6631938815116882,-0.09161274135112762,-0.03515372797846794,0.015978965908288956,5.845359
0.1173158809542656,9.854534149169922,0.6703764796257019,-0.07563377171754837,-0.03302319720387459,0.013848437927663326,5.850354
0.12210428714752197,9.823410034179688,0.646434485912323,-0.058589544147253036,-0.02876213937997818,0.011717909015715122,5.855352
0.11013327538967133,9.792284965515137,0.5985504388809204,-0.04367583990097046,-0.024501081556081772,0.009587380103766918,5.860354
0.13168109953403473,9.75397777557373,0.5099649429321289,-0.027696875855326653,-0.022370552644133568,0.009587380103766918,5.865359
0.15562310814857483,9.75637149810791,0.4405331015586853,-0.01065264455974102,-0.02130528911948204,0.006391586735844612,5.870359
0.20111294090747833,9.72285270690918,0.31124621629714966,0.00532632227987051,-0.023435818031430244,0.00532632227987051,5.875361
0.22266076505184174,9.674968719482422,0.1867477297782898,0.017044231295585632,-0.023435818031430244,0.006391586735844612,5.880366
0.2082955539226532,9.619902610778809,0.17956513166427612,0.024501081556081772,-0.024501081556081772,0.007456851191818714,5.885363
0.1867477297782898,9.588777542114258,0.1173158809542656,0.023435818031430244,-0.022370552644133568,0.011717909015715122,5.890362
0.1604115068912506,9.586383819580078,0.12689268589019775,0.022370552644133568,-0.024501081556081772,0.015978965908288956,5.895365
0.14365209639072418,9.560047149658203,0.10055647045373917,0.01810949482023716,-0.026631610468029976,0.017044231295585632,5.90037
0.1388636976480484,9.543288230895996,0.05746084079146385,0.011717909015715122,-0.026631610468029976,0.01810949482023716,5.905367
0.0933738648891449,9.531316757202148,0.1149216815829277,0.002130528911948204,-0.027696875855326653,0.01810949482023716,5.910375
0.028730420395731926,9.567230224609375,0.12689268589019775,-0.006391586735844612,-0.027696875855326653,0.015978965908288956,5.915378
0.014365210197865963,9.610325813293457,0.1604115068912506,-0.014913702383637428,-0.02556634694337845,0.017044231295585632,5.920373
0.0,9.610325813293457,0.1843535304069519,-0.026631610468029976,-0.024501081556081772,0.013848437927663326,5.925374
-0.009576806798577309,9.627084732055664,0.19871874153614044,-0.037284255027770996,-0.020240023732185364,0.014913702383637428,5.930376
-0.043095629662275314,9.610325813293457,0.21787235140800476,-0.04580637067556381,-0.019174760207533836,0.014913702383637428,5.935379
-0.038307227194309235,9.627084732055664,0.24420857429504395,-0.05326322093605995,-0.013848437927663326,0.012783173471689224,5.940379
-0.043095629662275314,9.643844604492188,0.3016694188117981,-0.06072007119655609,-0.008522115647792816,0.013848437927663326,5.945388
-0.004788403399288654,9.651026725769043,0.38546648621559143,-0.06711165606975555,-0.006391586735844612,0.012783173471689224,5.950383
0.031124621629714966,9.648633003234863,0.3687070608139038,-0.06924218684434891,-0.00532632227987051,0.011717909015715122,5.955382
0.0454898327589035,9.648633003234863,0.3734954595565796,-0.06817692518234253,-0.006391586735844612,0.01065264455974102,5.960384
0.05027823522686958,9.672574996948242,0.395043283700943,-0.06817692518234253,-0.006391586735844612,0.009587380103766918,5.965387
0.09576806426048279,9.713275909423828,0.4165911078453064,-0.06817692518234253,-0.008522115647792816,0.008522115647792816,5.970387
0.11971008777618408,9.768342971801758,0.3758896589279175,-0.06072007119655609,-0.014913702383637428,0.01065264455974102,5.9754
0.15322890877723694,9.780313491821289,0.3902548849582672,-0.052197955548763275,-0.020240023732185364,0.009587380103766918,5.980394
0.22026655077934265,9.797073364257812,0.3998316824436188,-0.04048004746437073,-0.02556634694337845,0.007456851191818714,5.985394
0.2801215946674347,9.830592155456543,0.4429273009300232,-0.03621898964047432,-0.030892668291926384,0.004261057823896408,5.990393
0.3280056416988373,9.895236015319824,0.4620809257030487,-0.026631610468029976,-0.03621898964047432,0.002130528911948204,5.995393
0.31603461503982544,9.93354320526123,0.5051765441894531,-0.020240023732185364,-0.03941478207707405,-0.002130528911948204,6.0004
0.3519476354122162,9.940725326538086,0.5099649429321289,-0.01065264455974102,-0.04261057823896408,-0.007456851191818714,6.005395
0.3711012601852417,9.981427192687988,0.569819986820221,0.003195793367922306,-0.0511326938867569,-0.013848437927663326,6.010403
0.3734954595565796,10.019734382629395,0.6033388376235962,0.015978965908288956,-0.055393751710653305,-0.022370552644133568,6.015405
0.3687070608139038,10.000580787658691,0.586579442024231,0.030892668291926384,-0.05965480953454971,-0.029827404767274857,6.020402
0.40701428055763245,9.99339771270752,0.5913678407669067,0.044741105288267136,-0.06285060197114944,-0.037284255027770996,6.025401
0.38307225704193115,9.986215591430664,0.6177040338516235,0.055393751710653305,-0.06391586363315582,-0.04261057823896408,6.030403
0.37828385829925537,9.99100399017334,0.6512228846549988,0.06178533658385277,-0.06178533658385277,-0.049002163112163544,6.035408
0.3687070608139038,9.981427192687988,0.6775590777397156,0.06817692518234253,-0.058589544147253036,-0.05752427875995636,6.040407
0.363918662071228,9.967061996459961,0.6033388376235962,0.0788295641541481,-0.05752427875995636,-0.06391586363315582,6.045416
0.3447650372982025,9.93593692779541,0.5386953949928284,0.0884169489145279,-0.05645901337265968,-0.07137271761894226,6.050414
0.33518823981285095,9.943120002746582,0.507570743560791,0.09800432622432709,-0.05645901337265968,-0.07456851005554199,6.055411
0.304063618183136,9.93354320526123,0.40940847992897034,0.1065264418721199,-0.05965480953454971,-0.07776430249214172,6.060411
0.24660277366638184,9.897629737854004,0.2992752194404602,0.10972223430871964,-0.06285060197114944,-0.08202536404132843,6.065416
0.23702596127986908,9.885659217834473,0.2298433631658554,0.10972223430871964,-0.0649811327457428,-0.08415588736534119,6.070416
0.22026655077934265,9.909601211547852,0.19871874153614044,0.10546118021011353,-0.06817692518234253,-0.08628641813993454,6.075421
0.1843535304069519,9.928754806518555,0.16998831927776337,0.09693906456232071,-0.07030745595693588,-0.08735167980194092,6.080424
0.20111294090747833,9.955090522766113,0.16998831927776337,0.08735167980194092,-0.07243797928094864,-0.08415588736534119,6.085421
0.18914192914962769,9.986215591430664,0.22266076505184174,0.07243797928094864,-0.07669904083013535,-0.08628641813993454,6.09042
0.16759411990642548,10.031704902648926,0.28969839215278625,0.06391586363315582,-0.07989483326673508,-0.08309062570333481,6.095421
0.17477671802043915,10.038887977600098,0.31603461503982544,0.06178533658385277,-0.08309062570333481,-0.08202536404132843,6.100428
0.19632454216480255,10.04846477508545,0.38546648621559143,0.05752427875995636,-0.08735167980194092,-0.08415588736534119,6.105426
0.2106897532939911,10.074800491333008,0.4692635238170624,0.05965480953454971,-0.092678003013134,-0.08735167980194092,6.110434
0.20111294090747833,10.120290756225586,0.5506663918495178,0.06072007119655609,-0.09587379544973373,-0.09054747968912125,6.115433
0.21308395266532898,10.139444351196289,0.569819986820221,0.06817692518234253,-0.10013485699892044,-0.092678003013134,6.12043
0.2106897532939911,10.170568466186523,0.5841852426528931,0.07456851005554199,-0.1022653877735138,-0.09906959533691406,6.12543
0.21787235140800476,10.247182846069336,0.5650315880775452,0.08096009492874146,-0.10333064943552017,-0.10439591109752655,6.130433
0.1604115068912506,10.290278434753418,0.5506663918495178,0.09054747968912125,-0.10546118021011353,-0.10759170353412628,6.135438
0.10534487664699554,10.237606048583984,0.5291185975074768,0.10013485699892044,-0.1065264418721199,-0.11398329585790634,6.140439
0.05985504388809204,10.096348762512207,0.5195417404174805,0.10333064943552017,-0.10120011866092682,-0.12144014239311218,6.145445
0.004788403399288654,10.034099578857422,0.5793967843055725,0.10439591109752655,-0.09480853378772736,-0.12463593482971191,6.15044
-0.009576806798577309,9.96945571899414,0.569819986820221,0.10333064943552017,-0.08628641813993454,-0.13102751970291138,6.155439
-0.016759412363171577,9.892841339111328,0.5147533416748047,0.09693906456232071,-0.0788295641541481,-0.13635385036468506,6.16044
-0.011971008032560349,9.825803756713867,0.4572925269603729,0.08735167980194092,-0.07137271761894226,-0.1395496428012848,6.165446
0.019153613597154617,9.744400978088379,0.4381389021873474,0.07137271761894226,-0.0649811327457428,-0.14168016612529755,6.170446
0.05027823522686958,9.75637149810791,0.3926490843296051,0.05645901337265968,-0.0649811327457428,-0.14274543523788452,6.175454
0.08140286058187485,9.718064308166504,0.507570743560791,0.044741105288267136,-0.06817692518234253,-0.14594122767448425,6.180452
0.10295066982507706,9.667786598205566,0.49799394607543945,0.020240023732185364,-0.06391586363315582,-0.15020228922367096,6.185449
0.10295066982507706,9.648633003234863,0.4836287498474121,-0.008522115647792816,-0.058589544147253036,-0.15552860498428345,6.190449
0.08858546614646912,9.658209800720215,0.4692635238170624,-0.037284255027770996,-0.05752427875995636,-0.15978966653347015,6.195452
0.1173158809542656,9.691728591918945,0.5051765441894531,-0.06604639440774918,-0.05645901337265968,-0.16511598229408264,6.200457
0.12210428714752197,9.746794700622559,0.5578489899635315,-0.09054747968912125,-0.05432848632335663,-0.16937704384326935,6.205453
0.1388636976480484,9.816226959228516,0.6560112833976746,-0.11078750342130661,-0.049002163112163544,-0.17363810539245605,6.210462
0.15083470940589905,9.830592155456543,0.7206547260284424,-0.12889699637889862,-0.044741105288267136,-0.18002969026565552,6.215462
0.20111294090747833,9.847352027893066,0.7326257228851318,-0.1438107043504715,-0.04367583990097046,-0.18748654425144196,6.220459
0.2322375625371933,9.864110946655273,0.7326257228851318,-0.1533980816602707,-0.03941478207707405,-0.1906823366880417,6.22546
0.2777273952960968,9.873687744140625,0.7541735172271729,-0.15978966653347015,-0.04048004746437073,-0.1906823366880417,6.230463
0.2825157940387726,9.911994934082031,0.7733271718025208,-0.16511598229408264,-0.03834952041506767,-0.1896170675754547,6.235465
0.3208230137825012,9.974244117736816,0.7948749661445618,-0.16618125140666962,-0.04261057823896408,-0.18748654425144196,6.240466
0.3663128614425659,9.964667320251465,0.8188169598579407,-0.1619201898574829,-0.04580637067556381,-0.18642127513885498,6.245473
0.38307225704193115,9.93593692779541,0.849941611289978,-0.15552860498428345,-0.052197955548763275,-0.18216021358966827,6.250468
0.4429273009300232,9.950302124023438,0.8786720037460327,-0.15020228922367096,-0.052197955548763275,-0.18002969026565552,6.255468
0.5051765441894531,9.95748519897461,0.8954314589500427,-0.1438107043504715,-0.055393751710653305,-0.17363810539245605,6.26047
0.5363011956214905,9.988609313964844,0.8954314589500427,-0.13741910457611084,-0.06178533658385277,-0.1672465205192566,6.265475
0.5674257874488831,9.99100399017334,0.8906430602073669,-0.12676647305488586,-0.07030745595693588,-0.15978966653347015,6.270473
0.6224924325942993,9.979032516479492,0.8834604024887085,-0.11291802674531937,-0.0788295641541481,-0.1533980816602707,6.275478
0.6584054827690125,10.002974510192871,0.9169792532920837,-0.09693906456232071,-0.08628641813993454,-0.14700649678707123,6.280481
0.7158663272857666,10.002974510192871,0.8762778043746948,-0.08202536404132843,-0.09693906456232071,-0.14061491191387177,6.285479
0.7374141216278076,9.952696800231934,0.8259995579719543,-0.06711165606975555,-0.10546118021011353,-0.1342233121395111,6.290479
0.727837324142456,9.943120002746582,0.8595184087753296,-0.055393751710653305,-0.11504855751991272,-0.12676647305488586,6.295479
0.7493851184844971,9.976638793945312,0.8403648138046265,-0.049002163112163544,-0.12463593482971191,-0.12144014239311218,6.300485
0.7757213711738586,9.99339771270752,0.8164227604866028,-0.041545312851667404,-0.1342233121395111,-0.1161138191819191,6.305482
0.7589619159698486,9.998186111450195,0.8667010068893433,-0.030892668291926384,-0.14168016612529755,-0.11291802674531937,6.31049
0.7709329724311829,10.0580415725708,0.8978256583213806,-0.023435818031430244,-0.148071750998497,-0.10972223430871964,6.315491
0.8020575642585754,10.065223693847656,0.9145850539207458,-0.014913702383637428,-0.15126754343509674,-0.10759170353412628,6.320489
0.8307880163192749,10.02691650390625,0.9313444495201111,-0.00532632227987051,-0.15552860498428345,-0.10759170353412628,6.325488
0.8068459630012512,9.983820915222168,0.9217676520347595,0.003195793367922306,-0.1533980816602707,-0.11078750342130661,6.330491
0.7733271718025208,9.952696800231934,0.9265560507774353,0.013848437927663326,-0.1533980816602707,-0.11185276508331299,6.335494
0.7398083209991455,9.940725326538086,0.9050082564353943,0.02556634694337845,-0.1576591283082962,-0.11291802674531937,6.340495
0.7350199222564697,9.904812812805176,0.9313444495201111,0.03834952041506767,-0.15978966653347015,-0.11717908829450607,6.345503
0.6751648783683777,9.9000244140625,0.9169792532920837,0.049002163112163544,-0.16298545897006989,-0.1203748807311058,6.350497
0.6272808313369751,9.873687744140625,0.9026140570640564,0.05965480953454971,-0.16618125140666962,-0.12250541150569916,6.355498
0.5746083855628967,9.830592155456543,0.8858546018600464,0.06924218684434891,-0.1672465205192566,-0.1257012039422989,6.360498
0.5386953949928284,9.758766174316406,0.8834604024887085,0.07989483326673508,-0.16831177473068237,-0.1257012039422989,6.365503
0.5051765441894531,9.677363395690918,0.849941611289978,0.0884169489145279,-0.17257283627986908,-0.12144014239311218,6.370502
0.4596867263317108,9.591172218322754,0.849941611289978,0.09800432622432709,-0.17363810539245605,-0.12144014239311218,6.375508
0.45250412821769714,9.495404243469238,0.7924807667732239,0.10439591109752655,-0.1757686287164688,-0.1203748807311058,6.380509
0.45010992884635925,9.402029991149902,0.7206547260284424,0.11185276508331299,-0.17896442115306854,-0.11717908829450607,6.385507
0.42616790533065796,9.349357604980469,0.689530074596405,0.11717908829450607,-0.18216021358966827,-0.11291802674531937,6.390507
0.3902548849582672,9.287108421325684,0.6727706789970398,0.11824434995651245,-0.185356006026268,-0.11078750342130661,6.395508
0.3926490843296051,9.220070838928223,0.6416460275650024,0.1203748807311058,-0.1906823366880417,-0.10865697264671326,6.400513
0.3878606855869293,9.14345645904541,0.6320692300796509,0.12357067316770554,-0.1906823366880417,-0.1065264418721199,6.405512
0.3519476354122162,9.095572471618652,0.6009446382522583,0.12357067316770554,-0.19281286001205444,-0.10333064943552017,6.410522
0.272938996553421,9.062053680419922,0.586579442024231,0.12357067316770554,-0.1949433833360672,-0.10013485699892044,6.41552
0.2346317619085312,8.983044624328613,0.6009446382522583,0.11930961906909943,-0.19387812912464142,-0.10013485699892044,6.420518
0.19393034279346466,8.889671325683594,0.6033388376235962,0.10972223430871964,-0.1906823366880417,-0.09374327212572098,6.425517
0.10773907601833344,8.875306129455566,0.6105214357376099,0.09800432622432709,-0.185356006026268,-0.0884169489145279,6.43052
0.05267243832349777,8.87051773071289,0.6105214357376099,0.08415588736534119,-0.17789915204048157,-0.08202536404132843,6.435524
-0.016759412363171577,8.83939266204834,0.6248866319656372,0.06924218684434891,-0.17044231295585632,-0.07776430249214172,6.440526
-0.07900865375995636,8.829815864562988,0.6153098344802856,0.05006742849946022,-0.16298545897006989,-0.07137271761894226,6.445531
-0.07900865375995636,8.851364135742188,0.6655880808830261,0.026631610468029976,-0.15446333587169647,-0.06178533658385277,6.450527
-0.13168109953403473,8.87291145324707,0.7134721279144287,0.004261057823896408,-0.14913702011108398,-0.0511326938867569,6.455525
-0.14365209639072418,8.925583839416504,0.7350199222564697,-0.015978965908288956,-0.1438107043504715,-0.041545312851667404,6.460527
-0.13407529890537262,8.980650901794434,0.8140285611152649,-0.034088462591171265,-0.13741910457611084,-0.030892668291926384,6.465532
-0.10295066982507706,9.102754592895508,0.8475474119186401,-0.044741105288267136,-0.1342233121395111,-0.01810949482023716,6.470532
-0.07900865375995636,9.2033109664917,0.8858546018600464,-0.05326322093605995,-0.13741910457611084,-0.013848437927663326,6.475539
-0.043095629662275314,9.272743225097656,0.9050082564353943,-0.06817692518234253,-0.13102751970291138,-0.011717909015715122,6.480538
0.05027823522686958,9.387664794921875,0.8978256583213806,-0.07989483326673508,-0.12889699637889862,-0.007456851191818714,6.485536
0.15801730751991272,9.50498104095459,0.9050082564353943,-0.08522115647792816,-0.1299622654914856,-0.006391586735844612,6.490535
0.21308395266532898,9.610325813293457,1.0031704902648926,-0.08415588736534119,-0.1257012039422989,-0.007456851191818714,6.495538
0.26815059781074524,9.696516990661621,0.9792284965515137,-0.09054747968912125,-0.11824434995651245,-0.01065264455974102,6.500543
0.3495534360408783,9.761159896850586,0.9792284965515137,-0.08948221057653427,-0.1161138191819191,-0.017044231295585632,6.50554
0.4165911078453064,9.799467086791992,1.036689281463623,-0.08735167980194092,-0.11398329585790634,-0.02130528911948204,6.510549
0.4620809257030487,9.883264541625977,1.0582371950149536,-0.08415588736534119,-0.1065264418721199,-0.026631610468029976,6.515548
0.45010992884635925,9.93593692779541,1.0773907899856567,-0.0788295641541481,-0.10120011866092682,-0.03621898964047432,6.520546
0.43095630407333374,9.940725326538086,1.1013327836990356,-0.07137271761894226,-0.09693906456232071,-0.04367583990097046,6.525547
0.42377370595932007,9.950302124023438,1.137245774269104,-0.0649811327457428,-0.08735167980194092,-0.04687163606286049,6.53055
0.3902548849582672,9.971850395202637,1.1851298809051514,-0.05432848632335663,-0.07989483326673508,-0.04793689772486687,6.535554
0.35434186458587646,9.916783332824707,1.1875240802764893,-0.04048004746437073,-0.07669904083013535,-0.05006742849946022,6.540552
0.33997663855552673,9.871294021606445,1.1061211824417114,-0.026631610468029976,-0.06711165606975555,-0.049002163112163544,6.54556
0.29209262132644653,9.821015357971191,1.0582371950149536,-0.015978965908288956,-0.05965480953454971,-0.04793689772486687,6.550555
