ax,ay,az,gx,gy,gz,timestamp
-0.38307225704193115,0.4118026793003082,-9.718064308166504,-0.004261057823896408,-0.00532632227987051,-0.001065264455974102,1.907597
-0.395043283700943,0.40462008118629456,-9.727641105651855,0.004261057823896408,-0.013848437927663326,0.007456851191818714,1.912597
-0.3878606855869293,0.4165911078453064,-9.710882186889648,0.001065264455974102,-0.003195793367922306,0.0,1.917597
-0.38546648621559143,0.3974374830722809,-9.694122314453125,-0.001065264455974102,-0.002130528911948204,-0.002130528911948204,1.922598
-0.38546648621559143,0.40462008118629456,-9.706093788146973,-0.002130528911948204,-0.00532632227987051,-0.002130528911948204,1.927598
-0.3878606855869293,0.40701428055763245,-9.703699111938477,0.0,-0.002130528911948204,-0.002130528911948204,1.932613
-0.3734954595565796,0.4118026793003082,-9.694122314453125,0.0,-0.001065264455974102,-0.003195793367922306,1.93761
-0.3926490843296051,0.40940847992897034,-9.684545516967773,-0.002130528911948204,-0.00532632227987051,-0.001065264455974102,1.942601
-0.3878606855869293,0.3926490843296051,-9.706093788146973,0.0,-0.00532632227987051,-0.002130528911948204,1.9476
-0.38546648621559143,0.4141969084739685,-9.696516990661621,0.0,-0.002130528911948204,-0.004261057823896408,1.9526
-0.3926490843296051,0.4165911078453064,-9.720458984375,-0.003195793367922306,-0.003195793367922306,-0.004261057823896408,1.9576
-0.3902548849582672,0.42856210470199585,-9.730035781860352,-0.002130528911948204,-0.004261057823896408,-0.002130528911948204,1.9626
-0.40701428055763245,0.4213795065879822,-9.694122314453125,0.001065264455974102,-0.003195793367922306,-0.002130528911948204,1.967603
-0.40462008118629456,0.42616790533065796,-9.706093788146973,0.002130528911948204,-0.004261057823896408,-0.002130528911948204,1.972605
-0.3902548849582672,0.3974374830722809,-9.706093788146973,-0.001065264455974102,-0.004261057823896408,-0.002130528911948204,1.977602
-0.3902548849582672,0.3998316824436188,-9.72285270690918,0.0,-0.004261057823896408,-0.002130528911948204,1.982608
-0.3902548849582672,0.4213795065879822,-9.72285270690918,0.001065264455974102,-0.004261057823896408,-0.001065264455974102,1.987608
-0.40462008118629456,0.4213795065879822,-9.706093788146973,-0.001065264455974102,-0.003195793367922306,-0.003195793367922306,1.992603
-0.3878606855869293,0.42616790533065796,-9.725247383117676,-0.001065264455974102,-0.003195793367922306,-0.001065264455974102,1.997604
-0.3974374830722809,0.4141969084739685,-9.708487510681152,0.001065264455974102,-0.003195793367922306,-0.001065264455974102,2.002603
-0.3902548849582672,0.42377370595932007,-9.706093788146973,-0.001065264455974102,-0.003195793367922306,-0.001065264455974102,2.007609
-0.40462008118629456,0.42616790533065796,-9.715670585632324,-0.002130528911948204,-0.003195793367922306,0.0,2.012605
-0.4141969084739685,0.3902548849582672,-9.682151794433594,0.001065264455974102,-0.00532632227987051,-0.001065264455974102,2.017614
-0.3878606855869293,0.3878606855869293,-9.734824180603027,0.0,-0.003195793367922306,-0.004261057823896408,2.022607
-0.3734954595565796,0.4141969084739685,-9.713275909423828,-0.002130528911948204,-0.002130528911948204,-0.003195793367922306,2.027607
-0.3902548849582672,0.4165911078453064,-9.713275909423828,-0.002130528911948204,-0.003195793367922306,-0.003195793367922306,2.032606
-0.3758896589279175,0.4213795065879822,-9.703699111938477,0.001065264455974102,-0.003195793367922306,-0.002130528911948204,2.037609
-0.3687070608139038,0.4165911078453064,-9.715670585632324,0.001065264455974102,-0.003195793367922306,-0.002130528911948204,2.042609
-0.38067805767059326,0.4141969084739685,-9.703699111938477,-0.002130528911948204,-0.003195793367922306,-0.003195793367922306,2.047622
-0.37828385829925537,0.4118026793003082,-9.708487510681152,-0.002130528911948204,-0.004261057823896408,-0.003195793367922306,2.052613
-0.3758896589279175,0.42377370595932007,-9.708487510681152,0.0,-0.003195793367922306,-0.002130528911948204,2.05761
-0.3758896589279175,0.4118026793003082,-9.715670585632324,0.001065264455974102,-0.003195793367922306,0.0,2.062608
-0.3902548849582672,0.4165911078453064,-9.730035781860352,0.001065264455974102,-0.002130528911948204,0.0,2.067608
-0.38067805767059326,0.43095630407333374,-9.703699111938477,0.001065264455974102,-0.002130528911948204,-0.002130528911948204,2.072613
-0.3711012601852417,0.43095630407333374,-9.710882186889648,0.001065264455974102,-0.004261057823896408,-0.002130528911948204,2.077608
-0.38307225704193115,0.43335050344467163,-9.737217903137207,-0.001065264455974102,-0.002130528911948204,-0.004261057823896408,2.082617
-0.40222588181495667,0.42856210470199585,-9.720458984375,0.002130528911948204,-0.001065264455974102,-0.003195793367922306,2.087615
-0.3663128614425659,0.4165911078453064,-9.710882186889648,-0.001065264455974102,-0.002130528911948204,-0.001065264455974102,2.092612
-0.3663128614425659,0.40462008118629456,-9.703699111938477,-0.001065264455974102,-0.002130528911948204,0.0,2.09761
-0.35673606395721436,0.42856210470199585,-9.715670585632324,-0.001065264455974102,-0.003195793367922306,-0.001065264455974102,2.102611
-0.37828385829925537,0.4213795065879822,-9.701305389404297,0.0,-0.001065264455974102,-0.002130528911948204,2.107615
-0.37828385829925537,0.3974374830722809,-9.701305389404297,0.001065264455974102,-0.002130528911948204,0.0,2.112614
-0.3758896589279175,0.42377370595932007,-9.72285270690918,0.0,-0.001065264455974102,-0.001065264455974102,2.117621
-0.3734954595565796,0.42856210470199585,-9.703699111938477,-0.002130528911948204,-0.003195793367922306,-0.001065264455974102,2.122616
-0.3734954595565796,0.4357447028160095,-9.703699111938477,0.0,-0.004261057823896408,-0.001065264455974102,2.127612
-0.38067805767059326,0.43095630407333374,-9.713275909423828,0.0,-0.00532632227987051,-0.002130528911948204,2.132612
-0.3663128614425659,0.4572925269603729,-9.684545516967773,-0.001065264455974102,-0.001065264455974102,-0.003195793367922306,2.137615
-0.3902548849582672,0.4405331015586853,-9.682151794433594,0.001065264455974102,-0.002130528911948204,-0.002130528911948204,2.142616
-0.3711012601852417,0.40940847992897034,-9.694122314453125,-0.001065264455974102,-0.004261057823896408,-0.003195793367922306,2.147622
-0.37828385829925537,0.40222588181495667,-9.706093788146973,-0.002130528911948204,-0.003195793367922306,-0.003195793367922306,2.152621
-0.38546648621559143,0.4141969084739685,-9.720458984375,0.0,-0.003195793367922306,-0.002130528911948204,2.157617
-0.35673606395721436,0.4405331015586853,-9.710882186889648,0.0,-0.003195793367922306,-0.002130528911948204,2.162614
-0.36152446269989014,0.42856210470199585,-9.72285270690918,0.0,-0.001065264455974102,-0.003195793367922306,2.167615
-0.40701428055763245,0.42377370595932007,-9.708487510681152,0.0,-0.002130528911948204,-0.003195793367922306,2.17262
-0.395043283700943,0.4405331015586853,-9.694122314453125,-0.002130528911948204,-0.002130528911948204,-0.002130528911948204,2.177617
-0.38067805767059326,0.45250412821769714,-9.679757118225098,-0.001065264455974102,-0.002130528911948204,-0.002130528911948204,2.182623
-0.38546648621559143,0.4118026793003082,-9.703699111938477,0.003195793367922306,-0.003195793367922306,-0.001065264455974102,2.187622
-0.37828385829925537,0.42856210470199585,-9.706093788146973,-0.001065264455974102,-0.003195793367922306,-0.002130528911948204,2.192619
-0.395043283700943,0.4429273009300232,-9.72285270690918,-0.002130528911948204,-0.003195793367922306,-0.003195793367922306,2.197617
-0.3998316824436188,0.43335050344467163,-9.72285270690918,0.002130528911948204,-0.004261057823896408,-0.002130528911948204,2.202618
-0.40940847992897034,0.44771572947502136,-9.684545516967773,-0.004261057823896408,-0.004261057823896408,-0.001065264455974102,2.207622
-0.4165911078453064,0.44532153010368347,-9.696516990661621,-0.002130528911948204,-0.001065264455974102,-0.002130528911948204,2.21262
-0.40940847992897034,0.4213795065879822,-9.720458984375,0.002130528911948204,-0.002130528911948204,-0.003195793367922306,2.217627
-0.3902548849582672,0.4381389021873474,-9.713275909423828,-0.003195793367922306,-0.001065264455974102,-0.003195793367922306,2.222622
-0.40940847992897034,0.4572925269603729,-9.706093788146973,-0.001065264455974102,-0.001065264455974102,-0.002130528911948204,2.227619
-0.4141969084739685,0.4381389021873474,-9.732429504394531,0.004261057823896408,-0.003195793367922306,-0.002130528911948204,2.23262
-0.40462008118629456,0.4381389021873474,-9.761159896850586,0.0,-0.002130528911948204,-0.002130528911948204,2.237626
-0.3926490843296051,0.45010992884635925,-9.703699111938477,-0.004261057823896408,-0.003195793367922306,-0.002130528911948204,2.242623
-0.4118026793003082,0.45010992884635925,-9.715670585632324,0.002130528911948204,-0.002130528911948204,-0.002130528911948204,2.247631
-0.4165911078453064,0.4165911078453064,-9.734824180603027,0.004261057823896408,-0.001065264455974102,-0.001065264455974102,2.252627
-0.3974374830722809,0.4596867263317108,-9.710882186889648,-0.002130528911948204,-0.001065264455974102,-0.003195793367922306,2.257623
-0.4118026793003082,0.43335050344467163,-9.684545516967773,0.001065264455974102,-0.003195793367922306,-0.001065264455974102,2.262622
-0.3902548849582672,0.4141969084739685,-9.679757118225098,0.002130528911948204,-0.001065264455974102,-0.003195793367922306,2.267623
-0.3734954595565796,0.45250412821769714,-9.682151794433594,-0.003195793367922306,-0.001065264455974102,-0.001065264455974102,2.272627
-0.38067805767059326,0.42377370595932007,-9.703699111938477,0.001065264455974102,-0.001065264455974102,-0.003195793367922306,2.277623
-0.3758896589279175,0.40701428055763245,-9.742006301879883,0.001065264455974102,-0.001065264455974102,-0.003195793367922306,2.28263
-0.395043283700943,0.395043283700943,-9.708487510681152,-0.002130528911948204,-0.001065264455974102,-0.004261057823896408,2.287629
-0.3758896589279175,0.42377370595932007,-9.694122314453125,-0.001065264455974102,-0.002130528911948204,-0.002130528911948204,2.292627
-0.38067805767059326,0.42377370595932007,-9.703699111938477,0.001065264455974102,0.0,-0.001065264455974102,2.297628
-0.3926490843296051,0.4213795065879822,-9.679757118225098,0.001065264455974102,-0.002130528911948204,-0.003195793367922306,2.302649
-0.3878606855869293,0.43335050344467163,-9.68933391571045,0.001065264455974102,-0.003195793367922306,-0.003195793367922306,2.307629
-0.38307225704193115,0.4213795065879822,-9.701305389404297,0.001065264455974102,-0.002130528911948204,-0.002130528911948204,2.312628
-0.37828385829925537,0.4405331015586853,-9.694122314453125,-0.001065264455974102,-0.001065264455974102,-0.002130528911948204,2.317637
-0.3687070608139038,0.42856210470199585,-9.670180320739746,-0.001065264455974102,-0.002130528911948204,-0.003195793367922306,2.322629
-0.3758896589279175,0.42856210470199585,-9.708487510681152,-0.001065264455974102,-0.001065264455974102,-0.003195793367922306,2.327627
-0.37828385829925537,0.42616790533065796,-9.725247383117676,-0.002130528911948204,-0.003195793367922306,-0.002130528911948204,2.332627
-0.3926490843296051,0.4118026793003082,-9.708487510681152,-0.001065264455974102,-0.003195793367922306,0.0,2.33763
-0.37828385829925537,0.42856210470199585,-9.6989107131958,-0.001065264455974102,-0.001065264455974102,-0.001065264455974102,2.34263
-0.38307225704193115,0.4381389021873474,-9.6989107131958,-0.001065264455974102,-0.002130528911948204,-0.003195793367922306,2.347638
-0.3926490843296051,0.4405331015586853,-9.679757118225098,0.0,-0.001065264455974102,-0.003195793367922306,2.352634
-0.3974374830722809,0.43335050344467163,-9.701305389404297,0.002130528911948204,-0.002130528911948204,-0.001065264455974102,2.357631
-0.3998316824436188,0.4213795065879822,-9.706093788146973,0.0,-0.002130528911948204,0.0,2.36263
-0.38067805767059326,0.4429273009300232,-9.696516990661621,-0.002130528911948204,-0.001065264455974102,-0.002130528911948204,2.367629
-0.3711012601852417,0.45489832758903503,-9.68694019317627,0.001065264455974102,-0.002130528911948204,-0.001065264455974102,2.372635
-0.3926490843296051,0.45010992884635925,-9.720458984375,0.001065264455974102,-0.002130528911948204,-0.001065264455974102,2.37763
-0.38307225704193115,0.42377370595932007,-9.734824180603027,-0.001065264455974102,-0.004261057823896408,-0.002130528911948204,2.382636
-0.38307225704193115,0.4381389021873474,-9.718064308166504,0.0,-0.003195793367922306,-0.002130528911948204,2.387637
-0.3974374830722809,0.4357447028160095,-9.720458984375,0.001065264455974102,-0.003195793367922306,-0.002130528911948204,2.392634
-0.40462008118629456,0.4596867263317108,-9.713275909423828,0.001065264455974102,-0.003195793367922306,0.0,2.397631
-0.38546648621559143,0.4357447028160095,-9.68694019317627,0.002130528911948204,-0.002130528911948204,-0.001065264455974102,2.402648
-0.38307225704193115,0.4429273009300232,-9.68694019317627,0.002130528911948204,-0.003195793367922306,-0.001065264455974102,2.407635
-0.40222588181495667,0.4381389021873474,-9.703699111938477,-0.002130528911948204,-0.001065264455974102,-0.001065264455974102,2.412634
-0.38546648621559143,0.4381389021873474,-9.68694019317627,-0.002130528911948204,-0.001065264455974102,-0.001065264455974102,2.417644
-0.35673606395721436,0.4572925269603729,-9.727641105651855,0.001065264455974102,-0.003195793367922306,-0.001065264455974102,2.422636
-0.38307225704193115,0.43335050344467163,-9.710882186889648,0.0,-0.003195793367922306,-0.001065264455974102,2.427634
-0.395043283700943,0.42856210470199585,-9.694122314453125,-0.001065264455974102,-0.003195793367922306,0.0,2.432633
-0.3902548849582672,0.43095630407333374,-9.696516990661621,0.0,-0.003195793367922306,-0.003195793367922306,2.437638
-0.38546648621559143,0.42377370595932007,-9.684545516967773,0.0,-0.002130528911948204,-0.003195793367922306,2.442637
-0.3878606855869293,0.4429273009300232,-9.708487510681152,-0.001065264455974102,-0.004261057823896408,-0.003195793367922306,2.447641
-0.395043283700943,0.43335050344467163,-9.694122314453125,0.0,-0.004261057823896408,-0.001065264455974102,2.452641
-0.37828385829925537,0.43335050344467163,-9.701305389404297,-0.001065264455974102,-0.002130528911948204,-0.002130528911948204,2.457638
-0.3974374830722809,0.43335050344467163,-9.703699111938477,0.0,0.0,-0.001065264455974102,2.462636
-0.3998316824436188,0.4405331015586853,-9.701305389404297,0.0,-0.002130528911948204,-0.002130528911948204,2.467636
-0.395043283700943,0.44532153010368347,-9.6989107131958,0.001065264455974102,-0.003195793367922306,-0.002130528911948204,2.472641
-0.40462008118629456,0.43335050344467163,-9.703699111938477,0.001065264455974102,-0.003195793367922306,-0.002130528911948204,2.477638
-0.4165911078453064,0.42377370595932007,-9.701305389404297,-0.001065264455974102,-0.001065264455974102,-0.003195793367922306,2.482644
-0.40701428055763245,0.42377370595932007,-9.725247383117676,-0.003195793367922306,0.0,-0.002130528911948204,2.487644
-0.38546648621559143,0.4405331015586853,-9.730035781860352,-0.001065264455974102,-0.001065264455974102,-0.001065264455974102,2.49264
-0.40701428055763245,0.4429273009300232,-9.718064308166504,0.001065264455974102,0.0,-0.002130528911948204,2.497638
-0.40462008118629456,0.4141969084739685,-9.718064308166504,0.001065264455974102,-0.001065264455974102,-0.002130528911948204,2.502642
-0.3902548849582672,0.4141969084739685,-9.710882186889648,-0.001065264455974102,-0.003195793367922306,-0.003195793367922306,2.507643
-0.3974374830722809,0.4381389021873474,-9.694122314453125,-0.002130528911948204,-0.003195793367922306,-0.001065264455974102,2.512643
-0.395043283700943,0.4118026793003082,-9.715670585632324,0.0,-0.003195793367922306,-0.001065264455974102,2.51765
-0.40462008118629456,0.43095630407333374,-9.710882186889648,0.001065264455974102,-0.003195793367922306,-0.001065264455974102,2.522642
-0.3902548849582672,0.4405331015586853,-9.713275909423828,0.001065264455974102,-0.003195793367922306,-0.002130528911948204,2.52764
-0.40222588181495667,0.44532153010368347,-9.6989107131958,-0.001065264455974102,-0.002130528911948204,-0.002130528911948204,2.532641
-0.3902548849582672,0.4381389021873474,-9.691728591918945,-0.003195793367922306,-0.001065264455974102,-0.001065264455974102,2.537646
-0.3878606855869293,0.43335050344467163,-9.68933391571045,-0.001065264455974102,-0.001065264455974102,-0.001065264455974102,2.542645
-0.3878606855869293,0.43095630407333374,-9.734824180603027,0.002130528911948204,-0.003195793367922306,-0.003195793367922306,2.54766
-0.363918662071228,0.42616790533065796,-9.701305389404297,-0.001065264455974102,-0.002130528911948204,-0.003195793367922306,2.552649
-0.3663128614425659,0.44532153010368347,-9.720458984375,-0.002130528911948204,-0.004261057823896408,-0.001065264455974102,2.557645
-0.3902548849582672,0.4429273009300232,-9.708487510681152,0.002130528911948204,-0.003195793367922306,-0.002130528911948204,2.562643
-0.3902548849582672,0.4357447028160095,-9.706093788146973,0.0,-0.001065264455974102,-0.001065264455974102,2.567644
-0.3878606855869293,0.4405331015586853,-9.713275909423828,-0.001065264455974102,-0.001065264455974102,-0.001065264455974102,2.572649
-0.3758896589279175,0.44771572947502136,-9.6989107131958,0.001065264455974102,-0.001065264455974102,-0.002130528911948204,2.577644
-0.3711012601852417,0.44532153010368347,-9.710882186889648,0.0,-0.003195793367922306,0.002130528911948204,2.582651
-0.38307225704193115,0.4405331015586853,-9.696516990661621,-0.004261057823896408,-0.002130528911948204,-0.001065264455974102,2.587651
-0.3758896589279175,0.43335050344467163,-9.713275909423828,-0.001065264455974102,-0.003195793367922306,-0.002130528911948204,2.592648
-0.3687070608139038,0.4429273009300232,-9.696516990661621,0.0,-0.002130528911948204,-0.001065264455974102,2.597647
-0.38546648621559143,0.42856210470199585,-9.677363395690918,-0.002130528911948204,-0.004261057823896408,-0.002130528911948204,2.602647
-0.37828385829925537,0.4429273009300232,-9.734824180603027,-0.001065264455974102,-0.003195793367922306,-0.003195793367922306,2.607649
-0.3687070608139038,0.43095630407333374,-9.720458984375,0.0,-0.002130528911948204,-0.002130528911948204,2.612648
-0.3758896589279175,0.4357447028160095,-9.694122314453125,-0.002130528911948204,-0.003195793367922306,-0.001065264455974102,2.617657
-0.38546648621559143,0.4165911078453064,-9.715670585632324,-0.001065264455974102,-0.003195793367922306,-0.001065264455974102,2.622658
-0.3758896589279175,0.4357447028160095,-9.701305389404297,0.001065264455974102,-0.002130528911948204,-0.001065264455974102,2.62765
-0.3734954595565796,0.4405331015586853,-9.68694019317627,0.0,-0.001065264455974102,-0.003195793367922306,2.632649
-0.40222588181495667,0.43095630407333374,-9.684545516967773,-0.001065264455974102,-0.003195793367922306,-0.003195793367922306,2.637652
-0.40940847992897034,0.4405331015586853,-9.696516990661621,-0.002130528911948204,-0.002130528911948204,-0.003195793367922306,2.64265
-0.395043283700943,0.42856210470199585,-9.701305389404297,0.001065264455974102,0.0,-0.002130528911948204,2.647656
-0.38546648621559143,0.42856210470199585,-9.694122314453125,-0.001065264455974102,0.0,-0.001065264455974102,2.652656
-0.3758896589279175,0.4429273009300232,-9.682151794433594,0.0,-0.003195793367922306,-0.002130528911948204,2.657655
-0.36152446269989014,0.42856210470199585,-9.732429504394531,0.002130528911948204,-0.003195793367922306,-0.003195793367922306,2.662651
-0.3926490843296051,0.44771572947502136,-9.732429504394531,-0.001065264455974102,-0.003195793367922306,-0.003195793367922306,2.66765
-0.40701428055763245,0.4381389021873474,-9.703699111938477,-0.002130528911948204,-0.004261057823896408,-0.002130528911948204,2.672655
-0.3878606855869293,0.4213795065879822,-9.691728591918945,-0.002130528911948204,-0.003195793367922306,-0.001065264455974102,2.677651
-0.395043283700943,0.4141969084739685,-9.713275909423828,0.001065264455974102,-0.003195793367922306,0.0,2.682659
-0.395043283700943,0.4213795065879822,-9.708487510681152,0.0,-0.002130528911948204,-0.002130528911948204,2.687658
-0.3878606855869293,0.40940847992897034,-9.725247383117676,0.001065264455974102,-0.002130528911948204,-0.001065264455974102,2.692655
-0.3902548849582672,0.40222588181495667,-9.732429504394531,-0.001065264455974102,-0.002130528911948204,-0.001065264455974102,2.697654
-0.3758896589279175,0.3974374830722809,-9.708487510681152,-0.001065264455974102,-0.001065264455974102,-0.003195793367922306,2.702654
-0.3711012601852417,0.4141969084739685,-9.708487510681152,-0.001065264455974102,-0.003195793367922306,-0.001065264455974102,2.707658
-0.38307225704193115,0.4189853072166443,-9.694122314453125,0.0,-0.003195793367922306,-0.001065264455974102,2.712655
-0.40701428055763245,0.40701428055763245,-9.706093788146973,0.0,-0.003195793367922306,-0.002130528911948204,2.717665
-0.4213795065879822,0.40701428055763245,-9.718064308166504,-0.001065264455974102,-0.003195793367922306,-0.001065264455974102,2.722657
-0.38067805767059326,0.4141969084739685,-9.706093788146973,-0.001065264455974102,-0.002130528911948204,-0.001065264455974102,2.727656
-0.3878606855869293,0.42616790533065796,-9.696516990661621,0.0,-0.002130528911948204,-0.001065264455974102,2.732655
-0.38067805767059326,0.42616790533065796,-9.691728591918945,-0.001065264455974102,-0.002130528911948204,-0.003195793367922306,2.737659
-0.3998316824436188,0.42856210470199585,-9.6989107131958,-0.001065264455974102,-0.002130528911948204,-0.001065264455974102,2.742658
-0.40701428055763245,0.40701428055763245,-9.706093788146973,0.001065264455974102,-0.001065264455974102,-0.003195793367922306,2.747675
-0.3974374830722809,0.4189853072166443,-9.720458984375,-0.001065264455974102,-0.003195793367922306,-0.002130528911948204,2.752663
-0.3998316824436188,0.4189853072166443,-9.72285270690918,-0.001065264455974102,-0.003195793367922306,-0.001065264455974102,2.75766
-0.3902548849582672,0.42616790533065796,-9.710882186889648,0.0,-0.001065264455974102,-0.001065264455974102,2.762657
-0.3926490843296051,0.4189853072166443,-9.703699111938477,0.0,-0.001065264455974102,-0.003195793367922306,2.767658
-0.3926490843296051,0.4165911078453064,-9.718064308166504,-0.001065264455974102,-0.003195793367922306,-0.002130528911948204,2.772663
-0.3998316824436188,0.43095630407333374,-9.72285270690918,0.0,-0.001065264455974102,-0.002130528911948204,2.77766
-0.3926490843296051,0.4141969084739685,-9.713275909423828,0.0,-0.001065264455974102,-0.003195793367922306,2.782667
-0.3974374830722809,0.40462008118629456,-9.718064308166504,-0.001065264455974102,-0.002130528911948204,-0.003195793367922306,2.787666
-0.3878606855869293,0.4189853072166443,-9.68933391571045,-0.001065264455974102,-0.002130528911948204,-0.003195793367922306,2.792662
-0.3902548849582672,0.4141969084739685,-9.708487510681152,0.0,-0.003195793367922306,-0.001065264455974102,2.79766
-0.38546648621559143,0.42377370595932007,-9.701305389404297,0.001065264455974102,-0.003195793367922306,-0.001065264455974102,2.802661
-0.38307225704193115,0.43335050344467163,-9.701305389404297,0.0,-0.004261057823896408,-0.001065264455974102,2.807665
-0.40462008118629456,0.4429273009300232,-9.718064308166504,-0.001065264455974102,-0.004261057823896408,-0.001065264455974102,2.812666
-0.3711012601852417,0.4405331015586853,-9.6989107131958,-0.001065264455974102,-0.002130528911948204,-0.003195793367922306,2.817671
-0.395043283700943,0.42856210470199585,-9.701305389404297,-0.001065264455974102,-0.002130528911948204,-0.001065264455974102,2.822666
-0.40222588181495667,0.40222588181495667,-9.684545516967773,-0.002130528911948204,-0.004261057823896408,-0.002130528911948204,2.827663
-0.3926490843296051,0.4118026793003082,-9.713275909423828,0.0,-0.002130528911948204,0.0,2.832662
-0.38067805767059326,0.4189853072166443,-9.725247383117676,-0.001065264455974102,-0.002130528911948204,-0.002130528911948204,2.837667
-0.3902548849582672,0.42616790533065796,-9.694122314453125,-0.001065264455974102,-0.003195793367922306,-0.001065264455974102,2.842666
-0.3998316824436188,0.43335050344467163,-9.739612579345703,0.0,-0.002130528911948204,-0.002130528911948204,2.847672
-0.3734954595565796,0.4357447028160095,-9.737217903137207,0.0,-0.002130528911948204,-0.001065264455974102,2.852671
-0.3758896589279175,0.4357447028160095,-9.720458984375,-0.001065264455974102,-0.002130528911948204,-0.001065264455974102,2.857667
-0.38067805767059326,0.42377370595932007,-9.684545516967773,-0.001065264455974102,-0.003195793367922306,-0.003195793367922306,2.862665
-0.395043283700943,0.4213795065879822,-9.715670585632324,0.0,-0.003195793367922306,-0.003195793367922306,2.867666
-0.38067805767059326,0.43335050344467163,-9.718064308166504,0.001065264455974102,-0.003195793367922306,-0.002130528911948204,2.872671
-0.40462008118629456,0.4357447028160095,-9.718064308166504,0.0,-0.002130528911948204,-0.002130528911948204,2.877666
-0.4118026793003082,0.42856210470199585,-9.727641105651855,0.0,-0.001065264455974102,-0.002130528911948204,2.882673
-0.40462008118629456,0.4165911078453064,-9.720458984375,0.001065264455974102,-0.002130528911948204,-0.001065264455974102,2.887673
-0.3758896589279175,0.4118026793003082,-9.68694019317627,-0.001065264455974102,-0.002130528911948204,-0.002130528911948204,2.892669
-0.38546648621559143,0.42616790533065796,-9.718064308166504,0.002130528911948204,-0.003195793367922306,-0.001065264455974102,2.897668
-0.37828385829925537,0.3974374830722809,-9.710882186889648,0.0,-0.002130528911948204,-0.002130528911948204,2.902669
-0.38546648621559143,0.4118026793003082,-9.703699111938477,-0.001065264455974102,0.0,-0.003195793367922306,2.907672
-0.3902548849582672,0.4189853072166443,-9.732429504394531,0.002130528911948204,-0.002130528911948204,-0.001065264455974102,2.912671
-0.38307225704193115,0.40462008118629456,-9.737217903137207,0.002130528911948204,-0.004261057823896408,-0.001065264455974102,2.91768
-0.38067805767059326,0.42377370595932007,-9.725247383117676,-0.001065264455974102,-0.003195793367922306,-0.002130528911948204,2.922672
-0.3878606855869293,0.42616790533065796,-9.710882186889648,-0.002130528911948204,-0.002130528911948204,0.0,2.927672
-0.3998316824436188,0.4141969084739685,-9.694122314453125,0.001065264455974102,-0.002130528911948204,0.0,2.93267
-0.3974374830722809,0.4118026793003082,-9.710882186889648,0.001065264455974102,-0.001065264455974102,-0.002130528911948204,2.937674
-0.38307225704193115,0.40462008118629456,-9.713275909423828,0.0,-0.003195793367922306,-0.002130528911948204,2.942672
-0.4189853072166443,0.4118026793003082,-9.710882186889648,0.0,-0.004261057823896408,-0.001065264455974102,2.947681
-0.3974374830722809,0.43095630407333374,-9.720458984375,-0.001065264455974102,-0.003195793367922306,-0.001065264455974102,2.952677
-0.363918662071228,0.4381389021873474,-9.720458984375,-0.002130528911948204,-0.001065264455974102,-0.002130528911948204,2.957681
-0.37828385829925537,0.4141969084739685,-9.72285270690918,0.0,0.0,-0.002130528911948204,2.962674
-0.3711012601852417,0.42856210470199585,-9.72285270690918,-0.001065264455974102,-0.002130528911948204,-0.002130528911948204,2.967672
-0.38307225704193115,0.4141969084739685,-9.706093788146973,0.0,-0.001065264455974102,0.0,2.972677
-0.36152446269989014,0.395043283700943,-9.710882186889648,0.001065264455974102,0.0,-0.001065264455974102,2.977673
-0.3519476354122162,0.43095630407333374,-9.694122314453125,-0.003195793367922306,-0.001065264455974102,-0.003195793367922306,2.982682
-0.3878606855869293,0.4213795065879822,-9.68694019317627,-0.001065264455974102,-0.002130528911948204,-0.001065264455974102,2.987681
-0.3663128614425659,0.395043283700943,-9.715670585632324,0.002130528911948204,-0.002130528911948204,-0.002130528911948204,2.992677
-0.36152446269989014,0.40462008118629456,-9.708487510681152,0.001065264455974102,-0.001065264455974102,-0.002130528911948204,2.997675
-0.3902548849582672,0.42377370595932007,-9.679757118225098,0.0,-0.002130528911948204,-0.002130528911948204,3.002676
-0.3734954595565796,0.4118026793003082,-9.701305389404297,0.002130528911948204,-0.003195793367922306,-0.001065264455974102,3.007679
-0.3519476354122162,0.3998316824436188,-9.715670585632324,0.0,-0.002130528911948204,-0.002130528911948204,3.012677
-0.3495534360408783,0.4165911078453064,-9.701305389404297,0.0,-0.001065264455974102,-0.002130528911948204,3.017687
-0.3447650372982025,0.4189853072166443,-9.706093788146973,0.0,-0.001065264455974102,-0.002130528911948204,3.02268
-0.3711012601852417,0.40222588181495667,-9.727641105651855,0.001065264455974102,-0.002130528911948204,-0.002130528911948204,3.027678
-0.36152446269989014,0.42856210470199585,-9.701305389404297,-0.001065264455974102,-0.003195793367922306,-0.001065264455974102,3.032677
-0.3878606855869293,0.43095630407333374,-9.6989107131958,-0.001065264455974102,-0.001065264455974102,-0.003195793367922306,3.037682
-0.3926490843296051,0.4141969084739685,-9.710882186889648,0.002130528911948204,-0.003195793367922306,-0.002130528911948204,3.04268
-0.3711012601852417,0.44771572947502136,-9.732429504394531,0.001065264455974102,-0.003195793367922306,-0.003195793367922306,3.047683
-0.38546648621559143,0.44532153010368347,-9.701305389404297,-0.001065264455974102,-0.002130528911948204,-0.003195793367922306,3.052688
-0.3711012601852417,0.4213795065879822,-9.710882186889648,0.001065264455974102,-0.002130528911948204,-0.002130528911948204,3.057682
-0.3926490843296051,0.45250412821769714,-9.682151794433594,0.0,-0.001065264455974102,-0.001065264455974102,3.06268
-0.38067805767059326,0.44532153010368347,-9.703699111938477,0.0,0.001065264455974102,-0.002130528911948204,3.06768
-0.4189853072166443,0.4141969084739685,-9.725247383117676,-0.002130528911948204,-0.002130528911948204,-0.002130528911948204,3.072686
-0.38307225704193115,0.40222588181495667,-9.718064308166504,-0.001065264455974102,-0.003195793367922306,-0.001065264455974102,3.077682
-0.3878606855869293,0.4189853072166443,-9.68933391571045,-0.002130528911948204,-0.002130528911948204,-0.001065264455974102,3.08269
-0.3711012601852417,0.3998316824436188,-9.718064308166504,0.0,-0.001065264455974102,-0.002130528911948204,3.087688
-0.38546648621559143,0.3998316824436188,-9.694122314453125,0.001065264455974102,0.0,-0.002130528911948204,3.092684
-0.3878606855869293,0.4165911078453064,-9.68694019317627,0.0,-0.001065264455974102,-0.004261057823896408,3.097682
-0.3902548849582672,0.4213795065879822,-9.696516990661621,0.001065264455974102,-0.002130528911948204,-0.004261057823896408,3.102684
-0.395043283700943,0.40222588181495667,-9.6989107131958,0.0,-0.002130528911948204,-0.002130528911948204,3.107687
-0.395043283700943,0.4141969084739685,-9.68694019317627,-0.001065264455974102,-0.002130528911948204,-0.001065264455974102,3.112686
-0.3926490843296051,0.40222588181495667,-9.715670585632324,0.001065264455974102,-0.003195793367922306,-0.001065264455974102,3.117693
-0.38067805767059326,0.43095630407333374,-9.713275909423828,0.001065264455974102,-0.003195793367922306,-0.002130528911948204,3.122686
-0.3734954595565796,0.42616790533065796,-9.732429504394531,-0.001065264455974102,-0.002130528911948204,-0.002130528911948204,3.127684
-0.3974374830722809,0.43335050344467163,-9.72285270690918,0.0,-0.003195793367922306,-0.003195793367922306,3.132685
-0.40222588181495667,0.43335050344467163,-9.715670585632324,0.0,0.0,-0.002130528911948204,3.13769
-0.4189853072166443,0.4405331015586853,-9.68933391571045,-0.001065264455974102,-0.001065264455974102,0.0,3.142689
-0.3998316824436188,0.43095630407333374,-9.708487510681152,0.0,-0.004261057823896408,-0.002130528911948204,3.14769
-0.3926490843296051,0.4165911078453064,-9.708487510681152,0.0,-0.004261057823896408,-0.003195793367922306,3.152692
-0.4141969084739685,0.4189853072166443,-9.710882186889648,-0.001065264455974102,-0.001065264455974102,-0.001065264455974102,3.157689
-0.38067805767059326,0.42377370595932007,-9.715670585632324,0.0,-0.001065264455974102,0.0,3.162687
-0.3926490843296051,0.4189853072166443,-9.696516990661621,0.001065264455974102,-0.001065264455974102,-0.001065264455974102,3.167689
-0.395043283700943,0.4118026793003082,-9.715670585632324,0.002130528911948204,-0.003195793367922306,-0.001065264455974102,3.172693
-0.38067805767059326,0.4165911078453064,-9.68933391571045,0.0,-0.002130528911948204,-0.001065264455974102,3.177688
-0.3926490843296051,0.42377370595932007,-9.691728591918945,0.0,-0.006391586735844612,-0.002130528911948204,3.182696
-0.40701428055763245,0.4118026793003082,-9.710882186889648,0.0,-0.002130528911948204,-0.003195793367922306,3.187695
-0.395043283700943,0.3974374830722809,-9.708487510681152,-0.001065264455974102,0.0,-0.002130528911948204,3.19269
-0.4118026793003082,0.4189853072166443,-9.713275909423828,-0.001065264455974102,0.001065264455974102,-0.003195793367922306,3.197691
-0.40701428055763245,0.4189853072166443,-9.706093788146973,0.002130528911948204,-0.001065264455974102,-0.003195793367922306,3.202692
-0.40222588181495667,0.42856210470199585,-9.715670585632324,0.0,-0.002130528911948204,-0.001065264455974102,3.207696
-0.3998316824436188,0.4357447028160095,-9.708487510681152,0.001065264455974102,-0.004261057823896408,0.0,3.212692
-0.40701428055763245,0.395043283700943,-9.713275909423828,0.0,-0.001065264455974102,-0.001065264455974102,3.217702
-0.3998316824436188,0.4213795065879822,-9.727641105651855,0.001065264455974102,-0.002130528911948204,-0.001065264455974102,3.222694
-0.3998316824436188,0.42856210470199585,-9.682151794433594,0.001065264455974102,-0.002130528911948204,-0.003195793367922306,3.227693
-0.3878606855869293,0.4405331015586853,-9.701305389404297,0.001065264455974102,-0.001065264455974102,-0.001065264455974102,3.232693
-0.38067805767059326,0.42377370595932007,-9.713275909423828,0.0,-0.002130528911948204,-0.001065264455974102,3.237696
-0.3711012601852417,0.4118026793003082,-9.703699111938477,0.001065264455974102,-0.001065264455974102,-0.001065264455974102,3.242695
-0.35913026332855225,0.4357447028160095,-9.713275909423828,0.0,-0.001065264455974102,-0.001065264455974102,3.247698
-0.3758896589279175,0.4165911078453064,-9.720458984375,-0.001065264455974102,-0.001065264455974102,-0.002130528911948204,3.2527
-0.38067805767059326,0.3998316824436188,-9.730035781860352,0.002130528911948204,-0.002130528911948204,-0.003195793367922306,3.257697
-0.3758896589279175,0.4118026793003082,-9.734824180603027,0.0,-0.001065264455974102,-0.002130528911948204,3.262696
-0.3687070608139038,0.4118026793003082,-9.713275909423828,-0.002130528911948204,-0.001065264455974102,-0.002130528911948204,3.267695
-0.3663128614425659,0.4118026793003082,-9.701305389404297,0.001065264455974102,0.0,-0.002130528911948204,3.2727
-0.3902548849582672,0.3974374830722809,-9.68933391571045,-0.001065264455974102,-0.001065264455974102,-0.002130528911948204,3.277696
-0.35434186458587646,0.42616790533065796,-9.734824180603027,0.0,-0.004261057823896408,-0.002130528911948204,3.282703
-0.3711012601852417,0.4141969084739685,-9.727641105651855,0.002130528911948204,-0.002130528911948204,-0.002130528911948204,3.287702
-0.3711012601852417,0.4118026793003082,-9.718064308166504,-0.001065264455974102,-0.002130528911948204,-0.001065264455974102,3.292699
-0.3734954595565796,0.42377370595932007,-9.68694019317627,-0.002130528911948204,-0.002130528911948204,-0.002130528911948204,3.297697
-0.3758896589279175,0.4165911078453064,-9.715670585632324,0.002130528911948204,-0.002130528911948204,-0.001065264455974102,3.302699
-0.3878606855869293,0.4405331015586853,-9.6989107131958,0.002130528911948204,0.0,-0.002130528911948204,3.307702
-0.395043283700943,0.4357447028160095,-9.713275909423828,-0.001065264455974102,-0.004261057823896408,-0.002130528911948204,3.312701
-0.3926490843296051,0.4213795065879822,-9.691728591918945,0.001065264455974102,-0.003195793367922306,-0.001065264455974102,3.317708
-0.38546648621559143,0.4165911078453064,-9.706093788146973,0.001065264455974102,-0.001065264455974102,-0.002130528911948204,3.322702
-0.38546648621559143,0.4189853072166443,-9.691728591918945,-0.001065264455974102,-0.004261057823896408,-0.002130528911948204,3.327701
-0.3926490843296051,0.4189853072166443,-9.696516990661621,0.001065264455974102,-0.003195793367922306,0.0,3.3327
-0.3998316824436188,0.42856210470199585,-9.710882186889648,0.001065264455974102,-0.001065264455974102,-0.001065264455974102,3.337705
-0.38067805767059326,0.4213795065879822,-9.701305389404297,-0.002130528911948204,-0.002130528911948204,-0.003195793367922306,3.342702
-0.38067805767059326,0.4213795065879822,-9.6989107131958,0.001065264455974102,-0.001065264455974102,-0.002130528911948204,3.347713
-0.35913026332855225,0.4213795065879822,-9.713275909423828,0.002130528911948204,-0.003195793367922306,-0.004261057823896408,3.352708
-0.3519476354122162,0.42616790533065796,-9.708487510681152,-0.001065264455974102,-0.001065264455974102,-0.003195793367922306,3.357704
-0.37828385829925537,0.4357447028160095,-9.696516990661621,0.0,-0.001065264455974102,0.0,3.362702
-0.38307225704193115,0.4213795065879822,-9.725247383117676,0.001065264455974102,-0.002130528911948204,-0.002130528911948204,3.367702
-0.395043283700943,0.43095630407333374,-9.713275909423828,0.001065264455974102,-0.002130528911948204,-0.002130528911948204,3.372708
-0.3974374830722809,0.4357447028160095,-9.710882186889648,0.002130528911948204,-0.003195793367922306,-0.001065264455974102,3.377704
-0.3974374830722809,0.4165911078453064,-9.727641105651855,0.002130528911948204,-0.002130528911948204,-0.002130528911948204,3.38271
-0.3926490843296051,0.43095630407333374,-9.713275909423828,-0.002130528911948204,-0.002130528911948204,-0.001065264455974102,3.38771
-0.37828385829925537,0.42377370595932007,-9.701305389404297,-0.001065264455974102,-0.004261057823896408,-0.002130528911948204,3.392707
-0.3663128614425659,0.4213795065879822,-9.706093788146973,0.0,-0.003195793367922306,-0.002130528911948204,3.397705
-0.37828385829925537,0.42616790533065796,-9.715670585632324,0.002130528911948204,-0.001065264455974102,-0.001065264455974102,3.402707
-0.3926490843296051,0.4405331015586853,-9.6989107131958,0.001065264455974102,-0.002130528911948204,-0.002130528911948204,3.407709
-0.3663128614425659,0.43095630407333374,-9.682151794433594,-0.003195793367922306,-0.002130528911948204,-0.002130528911948204,3.41271
-0.3926490843296051,0.4118026793003082,-9.708487510681152,-0.001065264455974102,-0.001065264455974102,-0.001065264455974102,3.417717
-0.40462008118629456,0.4189853072166443,-9.718064308166504,0.002130528911948204,-0.002130528911948204,0.0,3.422709
-0.3926490843296051,0.42616790533065796,-9.720458984375,0.0,-0.001065264455974102,0.0,3.427707
-0.3902548849582672,0.4141969084739685,-9.720458984375,-0.001065264455974102,-0.002130528911948204,-0.001065264455974102,3.432707
-0.3878606855869293,0.4357447028160095,-9.701305389404297,0.001065264455974102,-0.001065264455974102,-0.002130528911948204,3.437713
-0.3998316824436188,0.43095630407333374,-9.710882186889648,0.0,-0.003195793367922306,-0.001065264455974102,3.442711
-0.38307225704193115,0.4357447028160095,-9.691728591918945,-0.001065264455974102,-0.001065264455974102,-0.001065264455974102,3.447714
-0.3926490843296051,0.40462008118629456,-9.727641105651855,0.001065264455974102,-0.003195793367922306,-0.002130528911948204,3.452716
-0.395043283700943,0.42377370595932007,-9.713275909423828,0.001065264455974102,-0.003195793367922306,-0.001065264455974102,3.457711
-0.40462008118629456,0.44771572947502136,-9.677363395690918,-0.002130528911948204,-0.002130528911948204,-0.001065264455974102,3.462709
-0.38307225704193115,0.4381389021873474,-9.68694019317627,-0.001065264455974102,-0.003195793367922306,-0.002130528911948204,3.467711
-0.3878606855869293,0.40940847992897034,-9.708487510681152,0.001065264455974102,-0.004261057823896408,-0.002130528911948204,3.472715
-0.40701428055763245,0.3998316824436188,-9.713275909423828,0.0,-0.003195793367922306,-0.002130528911948204,3.477711
-0.3878606855869293,0.4118026793003082,-9.72285270690918,-0.001065264455974102,-0.002130528911948204,-0.003195793367922306,3.482719
-0.3926490843296051,0.4213795065879822,-9.6989107131958,0.001065264455974102,-0.002130528911948204,-0.002130528911948204,3.487717
-0.40222588181495667,0.43335050344467163,-9.710882186889648,0.0,-0.004261057823896408,-0.002130528911948204,3.492714
-0.40462008118629456,0.4405331015586853,-9.701305389404297,-0.001065264455974102,-0.002130528911948204,-0.001065264455974102,3.497713
-0.4141969084739685,0.40222588181495667,-9.694122314453125,0.002130528911948204,-0.002130528911948204,-0.003195793367922306,3.502715
-0.3758896589279175,0.40462008118629456,-9.706093788146973,0.002130528911948204,-0.003195793367922306,-0.001065264455974102,3.507717
-0.3902548849582672,0.40462008118629456,-9.694122314453125,0.0,-0.004261057823896408,-0.001065264455974102,3.512715
-0.3926490843296051,0.40701428055763245,-9.72285270690918,0.0,-0.002130528911948204,-0.001065264455974102,3.517725
-0.395043283700943,0.4189853072166443,-9.718064308166504,0.001065264455974102,-0.002130528911948204,-0.001065264455974102,3.522717
-0.3974374830722809,0.42616790533065796,-9.713275909423828,-0.001065264455974102,-0.002130528911948204,0.0,3.527716
-0.3878606855869293,0.4165911078453064,-9.706093788146973,0.0,-0.002130528911948204,-0.001065264455974102,3.532716
-0.38546648621559143,0.4118026793003082,-9.701305389404297,0.0,-0.003195793367922306,-0.001065264455974102,3.537719
-0.3998316824436188,0.40940847992897034,-9.6989107131958,-0.002130528911948204,-0.002130528911948204,-0.003195793367922306,3.542717
-0.40940847992897034,0.4141969084739685,-9.68694019317627,0.0,-0.003195793367922306,0.0,3.547724
-0.3878606855869293,0.40462008118629456,-9.691728591918945,0.001065264455974102,-0.001065264455974102,-0.002130528911948204,3.552723
-0.38546648621559143,0.4189853072166443,-9.703699111938477,0.001065264455974102,-0.001065264455974102,-0.002130528911948204,3.557719
-0.3711012601852417,0.40462008118629456,-9.730035781860352,0.001065264455974102,-0.002130528911948204,-0.003195793367922306,3.562718
-0.37828385829925537,0.40222588181495667,-9.742006301879883,0.0,-0.002130528911948204,-0.002130528911948204,3.567717
-0.3902548849582672,0.43095630407333374,-9.708487510681152,0.0,-0.001065264455974102,-0.001065264455974102,3.572722
-0.36152446269989014,0.40940847992897034,-9.68933391571045,-0.001065264455974102,-0.001065264455974102,-0.001065264455974102,3.577718
-0.3758896589279175,0.4213795065879822,-9.703699111938477,0.0,-0.003195793367922306,-0.002130528911948204,3.582726
-0.3734954595565796,0.4165911078453064,-9.6989107131958,-0.002130528911948204,-0.003195793367922306,-0.001065264455974102,3.587725
-0.40222588181495667,0.40701428055763245,-9.72285270690918,0.0,-0.001065264455974102,-0.002130528911948204,3.592722
-0.395043283700943,0.4213795065879822,-9.725247383117676,0.0,-0.002130528911948204,-0.002130528911948204,3.59772
-0.3878606855869293,0.43095630407333374,-9.68694019317627,-0.001065264455974102,-0.003195793367922306,-0.002130528911948204,3.602722
-0.395043283700943,0.44532153010368347,-9.6989107131958,0.0,-0.003195793367922306,0.0,3.607724
-0.3998316824436188,0.4189853072166443,-9.725247383117676,-0.001065264455974102,-0.003195793367922306,-0.003195793367922306,3.612722
-0.3926490843296051,0.4118026793003082,-9.706093788146973,0.002130528911948204,-0.002130528911948204,-0.003195793367922306,3.617731
-0.3711012601852417,0.43335050344467163,-9.708487510681152,0.001065264455974102,-0.001065264455974102,-0.001065264455974102,3.622724
-0.3878606855869293,0.4165911078453064,-9.720458984375,-0.001065264455974102,-0.003195793367922306,-0.002130528911948204,3.627723
-0.38307225704193115,0.42616790533065796,-9.696516990661621,-0.001065264455974102,-0.002130528911948204,-0.001065264455974102,3.632722
-0.3758896589279175,0.4213795065879822,-9.706093788146973,0.0,-0.003195793367922306,-0.001065264455974102,3.637727
-0.37828385829925537,0.42856210470199585,-9.703699111938477,0.0,-0.003195793367922306,-0.001065264455974102,3.642725
-0.38067805767059326,0.40701428055763245,-9.696516990661621,0.0,-0.002130528911948204,-0.003195793367922306,3.64773
-0.3998316824436188,0.4213795065879822,-9.6989107131958,-0.001065264455974102,-0.003195793367922306,-0.001065264455974102,3.65273
-0.40701428055763245,0.43335050344467163,-9.6989107131958,0.0,-0.003195793367922306,-0.001065264455974102,3.657727
-0.3998316824436188,0.42377370595932007,-9.710882186889648,0.0,-0.001065264455974102,-0.001065264455974102,3.662725
-0.3902548849582672,0.4165911078453064,-9.691728591918945,-0.002130528911948204,-0.002130528911948204,-0.001065264455974102,3.667725
-0.40462008118629456,0.4165911078453064,-9.715670585632324,-0.002130528911948204,-0.003195793367922306,-0.003195793367922306,3.67273
-0.38307225704193115,0.42616790533065796,-9.708487510681152,0.001065264455974102,-0.002130528911948204,0.0,3.677727
-0.3878606855869293,0.40701428055763245,-9.694122314453125,0.0,-0.002130528911948204,-0.001065264455974102,3.682734
-0.3926490843296051,0.4213795065879822,-9.706093788146973,0.0,-0.002130528911948204,0.0,3.687733
-0.3902548849582672,0.43095630407333374,-9.725247383117676,0.002130528911948204,-0.001065264455974102,-0.001065264455974102,3.692729
-0.395043283700943,0.40462008118629456,-9.725247383117676,-0.001065264455974102,-0.001065264455974102,-0.001065264455974102,3.697729
-0.3687070608139038,0.4141969084739685,-9.694122314453125,-0.001065264455974102,-0.002130528911948204,-0.002130528911948204,3.70273
-0.3734954595565796,0.43335050344467163,-9.694122314453125,0.0,-0.002130528911948204,-0.002130528911948204,3.707733
-0.3687070608139038,0.3974374830722809,-9.701305389404297,0.001065264455974102,-0.002130528911948204,-0.001065264455974102,3.712731
-0.3687070608139038,0.4118026793003082,-9.694122314453125,-0.001065264455974102,-0.003195793367922306,0.0,3.71774
-0.38067805767059326,0.4118026793003082,-9.68933391571045,0.0,-0.002130528911948204,-0.002130528911948204,3.722734
-0.38546648621559143,0.3974374830722809,-9.708487510681152,0.0,-0.002130528911948204,-0.001065264455974102,3.72773
-0.35673606395721436,0.40701428055763245,-9.691728591918945,-0.001065264455974102,-0.003195793367922306,0.0,3.73273
-0.35913026332855225,0.42377370595932007,-9.706093788146973,0.0,-0.003195793367922306,0.001065264455974102,3.737735
-0.3495534360408783,0.4165911078453064,-9.708487510681152,0.0,-0.002130528911948204,-0.001065264455974102,3.742734
-0.38067805767059326,0.42616790533065796,-9.691728591918945,-0.001065264455974102,-0.004261057823896408,-0.002130528911948204,3.747738
-0.38546648621559143,0.4189853072166443,-9.715670585632324,-0.002130528911948204,-0.003195793367922306,-0.003195793367922306,3.752737
-0.3878606855869293,0.4141969084739685,-9.730035781860352,-0.001065264455974102,-0.003195793367922306,-0.001065264455974102,3.757734
-0.395043283700943,0.43335050344467163,-9.701305389404297,0.0,-0.003195793367922306,-0.001065264455974102,3.762732
-0.395043283700943,0.4405331015586853,-9.68694019317627,0.001065264455974102,-0.003195793367922306,0.0,3.767734
-0.40222588181495667,0.43335050344467163,-9.710882186889648,0.0,-0.003195793367922306,0.0,3.772738
-0.3974374830722809,0.4357447028160095,-9.710882186889648,0.001065264455974102,-0.003195793367922306,0.0,3.777733
-0.40462008118629456,0.40940847992897034,-9.72285270690918,-0.001065264455974102,-0.001065264455974102,-0.002130528911948204,3.782741
-0.3878606855869293,0.4118026793003082,-9.710882186889648,-0.003195793367922306,-0.002130528911948204,-0.002130528911948204,3.78774
-0.37828385829925537,0.40701428055763245,-9.691728591918945,-0.001065264455974102,-0.002130528911948204,-0.002130528911948204,3.792737
-0.38067805767059326,0.4165911078453064,-9.706093788146973,0.001065264455974102,-0.002130528911948204,-0.001065264455974102,3.797737
-0.3758896589279175,0.4165911078453064,-9.713275909423828,0.0,-0.002130528911948204,-0.001065264455974102,3.802738
-0.3878606855869293,0.3902548849582672,-9.701305389404297,0.0,-0.001065264455974102,0.0,3.80774
-0.3974374830722809,0.3926490843296051,-9.68694019317627,-0.001065264455974102,-0.002130528911948204,-0.001065264455974102,3.812737
-0.3758896589279175,0.42377370595932007,-9.701305389404297,-0.001065264455974102,-0.003195793367922306,-0.002130528911948204,3.817746
-0.3687070608139038,0.40462008118629456,-9.703699111938477,-0.001065264455974102,-0.001065264455974102,-0.003195793367922306,3.822739
-0.3758896589279175,0.40222588181495667,-9.703699111938477,-0.001065264455974102,-0.002130528911948204,-0.003195793367922306,3.827739
-0.36152446269989014,0.3998316824436188,-9.703699111938477,-0.001065264455974102,-0.003195793367922306,-0.002130528911948204,3.832738
-0.363918662071228,0.40940847992897034,-9.694122314453125,-0.002130528911948204,-0.001065264455974102,-0.001065264455974102,3.837742
-0.38067805767059326,0.42616790533065796,-9.713275909423828,-0.001065264455974102,-0.002130528911948204,-0.002130528911948204,3.842739
-0.38546648621559143,0.43095630407333374,-9.703699111938477,-0.001065264455974102,-0.002130528911948204,-0.001065264455974102,3.847744
-0.3902548849582672,0.4118026793003082,-9.713275909423828,0.0,-0.002130528911948204,-0.003195793367922306,3.852746
-0.37828385829925537,0.4213795065879822,-9.701305389404297,-0.001065264455974102,-0.003195793367922306,-0.003195793367922306,3.857743
-0.38067805767059326,0.4213795065879822,-9.720458984375,0.0,-0.00532632227987051,-0.001065264455974102,3.862741
-0.3926490843296051,0.4118026793003082,-9.715670585632324,0.001065264455974102,-0.003195793367922306,0.0,3.86774
-0.3926490843296051,0.4189853072166443,-9.720458984375,0.0,-0.002130528911948204,-0.001065264455974102,3.872746
-0.40462008118629456,0.4165911078453064,-9.713275909423828,0.001065264455974102,-0.002130528911948204,-0.002130528911948204,3.877741
-0.395043283700943,0.4189853072166443,-9.691728591918945,0.0,-0.004261057823896408,-0.001065264455974102,3.882749
-0.40701428055763245,0.42377370595932007,-9.701305389404297,-0.001065264455974102,-0.004261057823896408,-0.001065264455974102,3.887748
-0.3974374830722809,0.4357447028160095,-9.703699111938477,-0.001065264455974102,-0.002130528911948204,-0.001065264455974102,3.892744
-0.4141969084739685,0.4165911078453064,-9.718064308166504,0.0,-0.002130528911948204,-0.002130528911948204,3.897743
-0.4213795065879822,0.4405331015586853,-9.713275909423828,0.0,-0.004261057823896408,-0.002130528911948204,3.902745
-0.4165911078453064,0.4357447028160095,-9.72285270690918,-0.002130528911948204,-0.002130528911948204,-0.002130528911948204,3.907746
-0.395043283700943,0.4381389021873474,-9.708487510681152,-0.001065264455974102,-0.003195793367922306,-0.002130528911948204,3.912745
-0.3878606855869293,0.43095630407333374,-9.725247383117676,0.0,-0.003195793367922306,-0.001065264455974102,3.917754
-0.3998316824436188,0.40940847992897034,-9.715670585632324,0.0,-0.00532632227987051,-0.001065264455974102,3.922747
-0.38546648621559143,0.4165911078453064,-9.718064308166504,0.0,-0.002130528911948204,-0.002130528911948204,3.927746
-0.3974374830722809,0.4381389021873474,-9.720458984375,0.0,-0.003195793367922306,-0.002130528911948204,3.932745
-0.395043283700943,0.4405331015586853,-9.682151794433594,0.0,-0.004261057823896408,-0.001065264455974102,3.93775
-0.3926490843296051,0.4381389021873474,-9.701305389404297,0.001065264455974102,-0.004261057823896408,0.0,3.942747
-0.38067805767059326,0.4141969084739685,-9.715670585632324,0.001065264455974102,-0.003195793367922306,0.0,3.947754
-0.3926490843296051,0.4118026793003082,-9.725247383117676,-0.002130528911948204,-0.001065264455974102,-0.002130528911948204,3.952753
-0.4141969084739685,0.42856210470199585,-9.68694019317627,-0.003195793367922306,-0.002130528911948204,-0.001065264455974102,3.957749
-0.3878606855869293,0.42856210470199585,-9.691728591918945,0.001065264455974102,-0.002130528911948204,0.0,3.962747
-0.3663128614425659,0.395043283700943,-9.708487510681152,0.001065264455974102,-0.002130528911948204,-0.001065264455974102,3.967748
-0.36152446269989014,0.3974374830722809,-9.732429504394531,-0.002130528911948204,-0.003195793367922306,-0.001065264455974102,3.972752
-0.3902548849582672,0.42856210470199585,-9.694122314453125,-0.001065264455974102,-0.003195793367922306,-0.002130528911948204,3.97775
-0.37828385829925537,0.42856210470199585,-9.684545516967773,0.001065264455974102,-0.004261057823896408,-0.002130528911948204,3.982757
-0.3902548849582672,0.43095630407333374,-9.6989107131958,-0.001065264455974102,-0.003195793367922306,-0.001065264455974102,3.987755
-0.38546648621559143,0.4165911078453064,-9.706093788146973,0.0,-0.003195793367922306,-0.001065264455974102,3.992751
-0.40222588181495667,0.395043283700943,-9.732429504394531,0.001065264455974102,-0.001065264455974102,-0.002130528911948204,3.99775
-0.38307225704193115,0.40222588181495667,-9.701305389404297,-0.001065264455974102,-0.002130528911948204,-0.001065264455974102,4.002753
-0.3711012601852417,0.3998316824436188,-9.691728591918945,0.0,-0.003195793367922306,-0.002130528911948204,4.007769
-0.3902548849582672,0.40462008118629456,-9.715670585632324,-0.001065264455974102,-0.002130528911948204,-0.002130528911948204,4.012755
-0.40222588181495667,0.38546648621559143,-9.694122314453125,-0.003195793367922306,-0.004261057823896408,-0.002130528911948204,4.01776
-0.40222588181495667,0.40701428055763245,-9.682151794433594,-0.002130528911948204,-0.002130528911948204,-0.003195793367922306,4.022755
-0.40701428055763245,0.3998316824436188,-9.703699111938477,0.001065264455974102,-0.003195793367922306,-0.002130528911948204,4.027752
-0.42616790533065796,0.40701428055763245,-9.708487510681152,0.0,-0.002130528911948204,-0.001065264455974102,4.032753
-0.40222588181495667,0.42616790533065796,-9.701305389404297,-0.001065264455974102,-0.002130528911948204,-0.002130528911948204,4.037758
-0.38546648621559143,0.40701428055763245,-9.708487510681152,0.001065264455974102,-0.002130528911948204,-0.003195793367922306,4.042757
-0.3902548849582672,0.4118026793003082,-9.694122314453125,0.001065264455974102,-0.002130528911948204,-0.001065264455974102,4.047762
-0.3926490843296051,0.40462008118629456,-9.718064308166504,-0.002130528911948204,-0.001065264455974102,0.0,4.052761
-0.3974374830722809,0.3926490843296051,-9.6989107131958,-0.001065264455974102,-0.003195793367922306,-0.001065264455974102,4.057757
-0.3758896589279175,0.40222588181495667,-9.682151794433594,0.0,-0.003195793367922306,-0.002130528911948204,4.062755
-0.38546648621559143,0.42616790533065796,-9.720458984375,-0.001065264455974102,-0.003195793367922306,-0.001065264455974102,4.067756
-0.3902548849582672,0.42616790533065796,-9.694122314453125,0.0,-0.003195793367922306,-0.001065264455974102,4.07276
-0.3878606855869293,0.4189853072166443,-9.703699111938477,-0.002130528911948204,-0.002130528911948204,-0.002130528911948204,4.077757
-0.3734954595565796,0.4118026793003082,-9.713275909423828,-0.002130528911948204,-0.003195793367922306,-0.002130528911948204,4.082764
-0.37828385829925537,0.4141969084739685,-9.679757118225098,-0.003195793367922306,-0.003195793367922306,-0.003195793367922306,4.087768
-0.37828385829925537,0.40462008118629456,-9.6989107131958,0.0,-0.003195793367922306,-0.001065264455974102,4.092759
-0.35913026332855225,0.42616790533065796,-9.715670585632324,0.001065264455974102,-0.003195793367922306,-0.002130528911948204,4.097759
-0.38546648621559143,0.43095630407333374,-9.708487510681152,-0.002130528911948204,-0.003195793367922306,-0.002130528911948204,4.102761
-0.3998316824436188,0.40462008118629456,-9.708487510681152,-0.001065264455974102,-0.001065264455974102,-0.002130528911948204,4.107764
-0.38067805767059326,0.40222588181495667,-9.68694019317627,0.0,-0.003195793367922306,-0.001065264455974102,4.112761
-0.40222588181495667,0.4405331015586853,-9.706093788146973,0.0,-0.003195793367922306,-0.003195793367922306,4.117767
-0.3926490843296051,0.43335050344467163,-9.720458984375,0.0,-0.003195793367922306,-0.002130528911948204,4.122762
-0.38546648621559143,0.42856210470199585,-9.667786598205566,0.0,-0.004261057823896408,-0.001065264455974102,4.127761
-0.40701428055763245,0.42856210470199585,-9.708487510681152,0.0,-0.003195793367922306,-0.001065264455974102,4.132762
-0.38546648621559143,0.4429273009300232,-9.706093788146973,0.0,0.0,-0.002130528911948204,4.137766
-0.40222588181495667,0.45010992884635925,-9.720458984375,-0.002130528911948204,-0.002130528911948204,-0.002130528911948204,4.142763
-0.3974374830722809,0.45010992884635925,-9.718064308166504,-0.002130528911948204,-0.003195793367922306,-0.002130528911948204,4.147769
-0.38546648621559143,0.4429273009300232,-9.708487510681152,-0.002130528911948204,0.0,-0.003195793367922306,4.152769
-0.3687070608139038,0.4405331015586853,-9.725247383117676,-0.001065264455974102,-0.003195793367922306,-0.001065264455974102,4.157766
-0.38067805767059326,0.4357447028160095,-9.734824180603027,0.0,-0.003195793367922306,0.0,4.162764
-0.3734954595565796,0.42856210470199585,-9.708487510681152,-0.001065264455974102,-0.002130528911948204,-0.002130528911948204,4.167763
-0.3902548849582672,0.42377370595932007,-9.701305389404297,-0.002130528911948204,-0.002130528911948204,-0.003195793367922306,4.172768
-0.3734954595565796,0.42856210470199585,-9.703699111938477,0.0,-0.002130528911948204,-0.002130528911948204,4.177764
-0.3711012601852417,0.42616790533065796,-9.713275909423828,0.001065264455974102,-0.003195793367922306,-0.002130528911948204,4.182773
-0.3495534360408783,0.42616790533065796,-9.706093788146973,0.001065264455974102,-0.003195793367922306,-0.001065264455974102,4.187771
-0.395043283700943,0.4189853072166443,-9.701305389404297,-0.001065264455974102,-0.002130528911948204,0.0,4.192768
-0.4118026793003082,0.40462008118629456,-9.701305389404297,0.0,0.0,-0.002130528911948204,4.197766
-0.38067805767059326,0.4189853072166443,-9.694122314453125,0.0,-0.002130528911948204,-0.002130528911948204,4.202768
-0.38546648621559143,0.4141969084739685,-9.670180320739746,0.0,-0.004261057823896408,-0.001065264455974102,4.207771
-0.3902548849582672,0.4118026793003082,-9.672574996948242,0.001065264455974102,-0.00532632227987051,0.0,4.212769
-0.3758896589279175,0.4118026793003082,-9.713275909423828,-0.001065264455974102,0.0,-0.001065264455974102,4.217775
-0.3758896589279175,0.4213795065879822,-9.715670585632324,-0.001065264455974102,-0.002130528911948204,-0.003195793367922306,4.22277
-0.3758896589279175,0.4189853072166443,-9.701305389404297,-0.003195793367922306,-0.003195793367922306,-0.002130528911948204,4.227768
-0.3711012601852417,0.4118026793003082,-9.718064308166504,-0.002130528911948204,-0.002130528911948204,-0.001065264455974102,4.232768
-0.3758896589279175,0.4118026793003082,-9.684545516967773,0.001065264455974102,-0.003195793367922306,0.0,4.237774
-0.36152446269989014,0.40462008118629456,-9.68694019317627,-0.001065264455974102,-0.004261057823896408,-0.003195793367922306,4.24277
-0.38067805767059326,0.40701428055763245,-9.718064308166504,0.0,-0.004261057823896408,-0.001065264455974102,4.247777
-0.38307225704193115,0.3926490843296051,-9.708487510681152,0.0,-0.003195793367922306,-0.001065264455974102,4.252776
-0.363918662071228,0.40462008118629456,-9.684545516967773,-0.002130528911948204,-0.003195793367922306,-0.001065264455974102,4.257772
-0.3734954595565796,0.4165911078453064,-9.694122314453125,0.0,-0.002130528911948204,-0.002130528911948204,4.262771
-0.38307225704193115,0.4165911078453064,-9.708487510681152,0.001065264455974102,-0.002130528911948204,-0.002130528911948204,4.267771
-0.38307225704193115,0.40462008118629456,-9.72285270690918,-0.001065264455974102,-0.002130528911948204,-0.003195793367922306,4.272776
-0.38067805767059326,0.4213795065879822,-9.713275909423828,-0.002130528911948204,-0.002130528911948204,-0.002130528911948204,4.277784
-0.3998316824436188,0.4165911078453064,-9.727641105651855,0.001065264455974102,-0.004261057823896408,-0.002130528911948204,4.282781
-0.3926490843296051,0.40940847992897034,-9.710882186889648,-0.002130528911948204,-0.003195793367922306,-0.001065264455974102,4.287778
-0.395043283700943,0.42377370595932007,-9.694122314453125,-0.003195793367922306,-0.002130528911948204,-0.002130528911948204,4.292774
-0.3687070608139038,0.42377370595932007,-9.706093788146973,0.002130528911948204,-0.003195793367922306,-0.001065264455974102,4.297773
-0.3998316824436188,0.4141969084739685,-9.725247383117676,0.001065264455974102,-0.003195793367922306,0.0,4.302776
-0.3974374830722809,0.4213795065879822,-9.708487510681152,-0.003195793367922306,-0.002130528911948204,-0.001065264455974102,4.307779
-0.37828385829925537,0.4357447028160095,-9.677363395690918,-0.001065264455974102,-0.001065264455974102,-0.003195793367922306,4.312782
-0.37828385829925537,0.4118026793003082,-9.682151794433594,-0.002130528911948204,-0.002130528911948204,-0.003195793367922306,4.317783
-0.3998316824436188,0.4165911078453064,-9.68694019317627,-0.001065264455974102,-0.003195793367922306,-0.003195793367922306,4.322778
-0.3926490843296051,0.4213795065879822,-9.713275909423828,0.0,-0.002130528911948204,-0.002130528911948204,4.327776
-0.3926490843296051,0.4213795065879822,-9.706093788146973,0.0,-0.002130528911948204,-0.002130528911948204,4.332776
-0.40462008118629456,0.4165911078453064,-9.708487510681152,-0.001065264455974102,-0.004261057823896408,-0.004261057823896408,4.337781
-0.40701428055763245,0.42616790533065796,-9.694122314453125,-0.001065264455974102,-0.003195793367922306,-0.001065264455974102,4.34278
-0.3878606855869293,0.4213795065879822,-9.715670585632324,0.0,-0.003195793367922306,-0.001065264455974102,4.347784
-0.3998316824436188,0.40940847992897034,-9.715670585632324,0.0,-0.003195793367922306,-0.001065264455974102,4.352784
-0.3974374830722809,0.44532153010368347,-9.710882186889648,-0.002130528911948204,-0.001065264455974102,-0.002130528911948204,4.35778
-0.3902548849582672,0.42616790533065796,-9.713275909423828,-0.003195793367922306,-0.002130528911948204,-0.002130528911948204,4.362778
-0.3974374830722809,0.4213795065879822,-9.6989107131958,-0.002130528911948204,-0.004261057823896408,-0.002130528911948204,4.36778
-0.3974374830722809,0.40701428055763245,-9.708487510681152,0.001065264455974102,-0.001065264455974102,-0.001065264455974102,4.372784
-0.40940847992897034,0.43335050344467163,-9.710882186889648,0.0,-0.002130528911948204,-0.001065264455974102,4.37778
-0.38067805767059326,0.43335050344467163,-9.684545516967773,-0.001065264455974102,-0.003195793367922306,0.0,4.382789
-0.3758896589279175,0.4141969084739685,-9.68694019317627,-0.001065264455974102,0.0,-0.002130528911948204,4.387786
-0.3926490843296051,0.4429273009300232,-9.701305389404297,-0.001065264455974102,-0.002130528911948204,-0.003195793367922306,4.392782
-0.40462008118629456,0.43335050344467163,-9.706093788146973,0.0,-0.002130528911948204,-0.003195793367922306,4.397782
-0.38546648621559143,0.42616790533065796,-9.734824180603027,0.002130528911948204,-0.002130528911948204,-0.002130528911948204,4.402785
-0.3926490843296051,0.4357447028160095,-9.713275909423828,-0.001065264455974102,-0.001065264455974102,-0.002130528911948204,4.407786
-0.40701428055763245,0.44771572947502136,-9.696516990661621,-0.003195793367922306,-0.003195793367922306,-0.002130528911948204,4.412783
-0.38067805767059326,0.4381389021873474,-9.706093788146973,0.002130528911948204,-0.003195793367922306,-0.001065264455974102,4.417791
-0.38546648621559143,0.4118026793003082,-9.6989107131958,0.0,-0.001065264455974102,0.0,4.422786
-0.38067805767059326,0.4141969084739685,-9.6989107131958,-0.003195793367922306,0.0,-0.002130528911948204,4.427785
-0.3687070608139038,0.42377370595932007,-9.718064308166504,0.001065264455974102,-0.001065264455974102,0.0,4.432785
-0.35913026332855225,0.40222588181495667,-9.739612579345703,0.001065264455974102,-0.003195793367922306,0.0,4.437791
-0.37828385829925537,0.42856210470199585,-9.718064308166504,-0.003195793367922306,-0.001065264455974102,-0.001065264455974102,4.442787
-0.3734954595565796,0.4189853072166443,-9.703699111938477,0.001065264455974102,0.0,-0.001065264455974102,4.447792
-0.3495534360408783,0.40462008118629456,-9.701305389404297,0.004261057823896408,-0.002130528911948204,-0.001065264455974102,4.452791
-0.37828385829925537,0.4141969084739685,-9.6989107131958,-0.002130528911948204,-0.002130528911948204,-0.003195793367922306,4.457788
-0.3711012601852417,0.4381389021873474,-9.6989107131958,-0.003195793367922306,-0.001065264455974102,-0.003195793367922306,4.462787
-0.3758896589279175,0.4141969084739685,-9.6989107131958,0.001065264455974102,-0.001065264455974102,-0.002130528911948204,4.467787
-0.3734954595565796,0.40462008118629456,-9.694122314453125,0.0,-0.004261057823896408,-0.002130528911948204,4.472792
-0.3711012601852417,0.4189853072166443,-9.72285270690918,-0.001065264455974102,-0.003195793367922306,-0.003195793367922306,4.477787
-0.3687070608139038,0.40940847992897034,-9.72285270690918,0.002130528911948204,-0.002130528911948204,-0.003195793367922306,4.482796
-0.3878606855869293,0.40940847992897034,-9.694122314453125,-0.001065264455974102,-0.002130528911948204,-0.001065264455974102,4.487794
-0.3711012601852417,0.42856210470199585,-9.677363395690918,-0.003195793367922306,-0.002130528911948204,0.001065264455974102,4.492791
-0.38307225704193115,0.42377370595932007,-9.701305389404297,0.003195793367922306,-0.002130528911948204,0.001065264455974102,4.497789
-0.37828385829925537,0.3926490843296051,-9.713275909423828,0.0,-0.001065264455974102,-0.002130528911948204,4.502791
-0.3902548849582672,0.4141969084739685,-9.68694019317627,-0.004261057823896408,-0.003195793367922306,-0.002130528911948204,4.507793
-0.363918662071228,0.4189853072166443,-9.6989107131958,0.0,-0.003195793367922306,0.001065264455974102,4.512792
-0.37828385829925537,0.4141969084739685,-9.6989107131958,0.001065264455974102,-0.003195793367922306,-0.002130528911948204,4.517799
-0.38307225704193115,0.40462008118629456,-9.713275909423828,-0.001065264455974102,-0.003195793367922306,-0.00532632227987051,4.522793
-0.36152446269989014,0.42377370595932007,-9.684545516967773,0.002130528911948204,-0.004261057823896408,0.0,4.527792
-0.3902548849582672,0.4357447028160095,-9.672574996948242,0.0,-0.001065264455974102,0.0,4.532792
-0.38067805767059326,0.4118026793003082,-9.677363395690918,-0.001065264455974102,-0.002130528911948204,-0.001065264455974102,4.537797
-0.3758896589279175,0.42856210470199585,-9.703699111938477,0.0,-0.002130528911948204,-0.001065264455974102,4.542794
-0.38067805767059326,0.4189853072166443,-9.713275909423828,0.001065264455974102,-0.001065264455974102,-0.002130528911948204,4.547801
-0.3878606855869293,0.43095630407333374,-9.68694019317627,-0.001065264455974102,-0.003195793367922306,-0.001065264455974102,4.552799
-0.40222588181495667,0.43095630407333374,-9.694122314453125,0.0,-0.00532632227987051,-0.002130528911948204,4.557796
-0.3711012601852417,0.4429273009300232,-9.720458984375,0.001065264455974102,-0.003195793367922306,-0.001065264455974102,4.562794
-0.3878606855869293,0.43335050344467163,-9.718064308166504,-0.001065264455974102,-0.003195793367922306,0.0,4.567794
-0.3758896589279175,0.4189853072166443,-9.708487510681152,-0.001065264455974102,-0.003195793367922306,-0.001065264455974102,4.5728
-0.37828385829925537,0.42856210470199585,-9.708487510681152,0.0,-0.004261057823896408,-0.002130528911948204,4.577796
-0.3878606855869293,0.4381389021873474,-9.725247383117676,-0.001065264455974102,-0.00532632227987051,-0.002130528911948204,4.582809
-0.40940847992897034,0.4381389021873474,-9.684545516967773,0.001065264455974102,-0.003195793367922306,-0.002130528911948204,4.587801
-0.38307225704193115,0.4596867263317108,-9.710882186889648,0.0,-0.001065264455974102,-0.002130528911948204,4.592798
-0.3998316824436188,0.45010992884635925,-9.691728591918945,0.0,-0.003195793367922306,0.0,4.597797
-0.3974374830722809,0.42616790533065796,-9.6989107131958,-0.001065264455974102,-0.003195793367922306,-0.001065264455974102,4.602799
-0.3878606855869293,0.4405331015586853,-9.727641105651855,0.001065264455974102,-0.003195793367922306,0.0,4.607802
-0.3998316824436188,0.4165911078453064,-9.727641105651855,-0.001065264455974102,-0.004261057823896408,-0.002130528911948204,4.612809
-0.38307225704193115,0.42856210470199585,-9.710882186889648,-0.001065264455974102,-0.002130528911948204,-0.001065264455974102,4.617809
-0.3758896589279175,0.44532153010368347,-9.710882186889648,0.0,-0.001065264455974102,-0.001065264455974102,4.622802
-0.3998316824436188,0.45010992884635925,-9.718064308166504,-0.001065264455974102,-0.003195793367922306,-0.001065264455974102,4.627799
-0.38307225704193115,0.45010992884635925,-9.708487510681152,-0.001065264455974102,-0.002130528911948204,-0.001065264455974102,4.632799
-0.3998316824436188,0.44771572947502136,-9.720458984375,0.0,-0.003195793367922306,-0.003195793367922306,4.63781
-0.395043283700943,0.43335050344467163,-9.720458984375,0.002130528911948204,-0.003195793367922306,-0.002130528911948204,4.642804
-0.3974374830722809,0.4141969084739685,-9.706093788146973,0.001065264455974102,-0.002130528911948204,0.001065264455974102,4.647812
-0.3687070608139038,0.43335050344467163,-9.720458984375,0.0,-0.003195793367922306,-0.001065264455974102,4.652809
-0.3926490843296051,0.40940847992897034,-9.715670585632324,-0.001065264455974102,-0.003195793367922306,-0.002130528911948204,4.657803
-0.3878606855869293,0.4189853072166443,-9.710882186889648,-0.002130528911948204,-0.001065264455974102,-0.003195793367922306,4.662802
-0.38067805767059326,0.4357447028160095,-9.679757118225098,-0.001065264455974102,0.0,0.0,4.667804
-0.3711012601852417,0.4189853072166443,-9.694122314453125,0.001065264455974102,-0.002130528911948204,-0.001065264455974102,4.67281
-0.38067805767059326,0.40462008118629456,-9.703699111938477,0.0,-0.002130528911948204,-0.002130528911948204,4.677803
-0.38546648621559143,0.40222588181495667,-9.68933391571045,0.0,-0.003195793367922306,-0.001065264455974102,4.682822
-0.38067805767059326,0.40462008118629456,-9.684545516967773,0.001065264455974102,-0.003195793367922306,-0.001065264455974102,4.687812
-0.38546648621559143,0.40701428055763245,-9.68694019317627,-0.001065264455974102,-0.003195793367922306,-0.001065264455974102,4.692807
-0.3758896589279175,0.43095630407333374,-9.677363395690918,-0.003195793367922306,-0.003195793367922306,-0.002130528911948204,4.697809
-0.3663128614425659,0.40940847992897034,-9.737217903137207,0.001065264455974102,-0.002130528911948204,-0.002130528911948204,4.70281
-0.3974374830722809,0.38307225704193115,-9.75397777557373,0.0,-0.004261057823896408,-0.002130528911948204,4.707811
-0.40462008118629456,0.40940847992897034,-9.696516990661621,-0.001065264455974102,-0.003195793367922306,-0.001065264455974102,4.712809
-0.3998316824436188,0.4165911078453064,-9.715670585632324,-0.001065264455974102,-0.002130528911948204,-0.001065264455974102,4.717817
-0.38307225704193115,0.40462008118629456,-9.713275909423828,0.0,-0.003195793367922306,-0.001065264455974102,4.722811
-0.38546648621559143,0.40462008118629456,-9.696516990661621,-0.001065264455974102,-0.003195793367922306,0.0,4.72781
-0.40222588181495667,0.40940847992897034,-9.682151794433594,-0.001065264455974102,-0.004261057823896408,0.0,4.732809
-0.3974374830722809,0.40940847992897034,-9.737217903137207,0.001065264455974102,-0.002130528911948204,-0.002130528911948204,4.73782
-0.3902548849582672,0.40222588181495667,-9.725247383117676,0.001065264455974102,-0.002130528911948204,-0.001065264455974102,4.742811
-0.3998316824436188,0.43095630407333374,-9.6989107131958,-0.002130528911948204,-0.003195793367922306,0.0,4.747819
-0.40701428055763245,0.40701428055763245,-9.68694019317627,-0.002130528911948204,-0.003195793367922306,0.0,4.752818
-0.40222588181495667,0.40940847992897034,-9.684545516967773,0.001065264455974102,-0.001065264455974102,-0.002130528911948204,4.757815
-0.38546648621559143,0.40462008118629456,-9.710882186889648,0.0,-0.003195793367922306,-0.002130528911948204,4.762812
-0.3663128614425659,0.4189853072166443,-9.701305389404297,0.0,-0.002130528911948204,-0.004261057823896408,4.767812
-0.3974374830722809,0.43335050344467163,-9.713275909423828,-0.002130528911948204,-0.002130528911948204,-0.001065264455974102,4.772817
-0.38307225704193115,0.4141969084739685,-9.706093788146973,-0.003195793367922306,-0.002130528911948204,-0.001065264455974102,4.777811
-0.38546648621559143,0.43095630407333374,-9.708487510681152,-0.001065264455974102,-0.003195793367922306,-0.001065264455974102,4.782825
-0.38307225704193115,0.4189853072166443,-9.713275909423828,0.001065264455974102,-0.003195793367922306,0.0,4.787821
-0.3663128614425659,0.40222588181495667,-9.713275909423828,-0.001065264455974102,-0.003195793367922306,0.0,4.792822
-0.363918662071228,0.42377370595932007,-9.703699111938477,-0.002130528911948204,-0.002130528911948204,-0.002130528911948204,4.797812
-0.395043283700943,0.4189853072166443,-9.715670585632324,0.0,-0.002130528911948204,-0.003195793367922306,4.802814
-0.3902548849582672,0.43095630407333374,-9.739612579345703,-0.001065264455974102,-0.002130528911948204,-0.003195793367922306,4.807818
-0.3902548849582672,0.4381389021873474,-9.6989107131958,0.0,-0.001065264455974102,-0.003195793367922306,4.812816
-0.38546648621559143,0.4165911078453064,-9.682151794433594,0.0,-0.003195793367922306,-0.002130528911948204,4.817825
-0.3902548849582672,0.42616790533065796,-9.710882186889648,-0.001065264455974102,-0.003195793367922306,-0.002130528911948204,4.822817
-0.3926490843296051,0.43335050344467163,-9.72285270690918,-0.001065264455974102,-0.002130528911948204,-0.001065264455974102,4.827815
-0.40940847992897034,0.4189853072166443,-9.694122314453125,0.001065264455974102,-0.002130528911948204,-0.001065264455974102,4.832815
-0.3902548849582672,0.4165911078453064,-9.703699111938477,0.0,-0.004261057823896408,-0.002130528911948204,4.837822
-0.3902548849582672,0.44532153010368347,-9.703699111938477,-0.001065264455974102,-0.002130528911948204,0.0,4.842817
-0.40462008118629456,0.42856210470199585,-9.720458984375,-0.001065264455974102,-0.002130528911948204,-0.001065264455974102,4.847837
-0.40940847992897034,0.40222588181495667,-9.718064308166504,0.0,-0.003195793367922306,-0.001065264455974102,4.852823
-0.40222588181495667,0.4165911078453064,-9.718064308166504,-0.001065264455974102,-0.004261057823896408,-0.001065264455974102,4.85782
-0.3974374830722809,0.43335050344467163,-9.708487510681152,-0.002130528911948204,-0.004261057823896408,0.0,4.862818
-0.3902548849582672,0.4429273009300232,-9.706093788146973,-0.001065264455974102,-0.003195793367922306,-0.001065264455974102,4.867818
-0.38307225704193115,0.4165911078453064,-9.718064308166504,0.001065264455974102,-0.002130528911948204,-0.001065264455974102,4.872823
-0.3902548849582672,0.44771572947502136,-9.718064308166504,-0.001065264455974102,-0.003195793367922306,-0.002130528911948204,4.87782
-0.37828385829925537,0.4165911078453064,-9.6989107131958,-0.001065264455974102,-0.002130528911948204,-0.001065264455974102,4.882828
-0.38546648621559143,0.40701428055763245,-9.710882186889648,0.0,-0.003195793367922306,0.0,4.887828
-0.3902548849582672,0.4165911078453064,-9.694122314453125,0.0,-0.004261057823896408,-0.001065264455974102,4.892821
-0.37828385829925537,0.43095630407333374,-9.706093788146973,-0.002130528911948204,-0.002130528911948204,0.0,4.89782
-0.37828385829925537,0.4141969084739685,-9.694122314453125,-0.001065264455974102,-0.002130528911948204,-0.001065264455974102,4.902822
-0.395043283700943,0.3974374830722809,-9.6989107131958,0.001065264455974102,-0.002130528911948204,-0.003195793367922306,4.907827
-0.38307225704193115,0.4213795065879822,-9.682151794433594,0.0,-0.002130528911948204,-0.002130528911948204,4.912829
-0.3926490843296051,0.40940847992897034,-9.68694019317627,-0.001065264455974102,-0.001065264455974102,-0.002130528911948204,4.91783
-0.3998316824436188,0.4141969084739685,-9.6989107131958,0.0,-0.002130528911948204,-0.002130528911948204,4.922825
-0.395043283700943,0.40222588181495667,-9.718064308166504,0.001065264455974102,-0.002130528911948204,-0.001065264455974102,4.927823
-0.3926490843296051,0.3998316824436188,-9.727641105651855,-0.002130528911948204,-0.003195793367922306,-0.002130528911948204,4.932823
-0.3878606855869293,0.3998316824436188,-9.658209800720215,-0.002130528911948204,-0.003195793367922306,-0.002130528911948204,4.93783
-0.3471592366695404,0.4165911078453064,-9.639056205749512,-0.003195793367922306,-0.003195793367922306,-0.002130528911948204,4.942827
-0.37828385829925537,0.4596867263317108,-9.744400978088379,0.003195793367922306,-0.001065264455974102,-0.002130528911948204,4.947832
-0.3878606855869293,0.43335050344467163,-9.787496566772461,0.007456851191818714,0.0,0.0,4.952831
-0.3878606855869293,0.40222588181495667,-9.742006301879883,0.002130528911948204,-0.002130528911948204,-0.002130528911948204,4.957828
-0.4381389021873474,0.4118026793003082,-9.68694019317627,-0.008522115647792816,-0.003195793367922306,-0.002130528911948204,4.962825
-0.44532153010368347,0.4357447028160095,-9.732429504394531,0.001065264455974102,-0.004261057823896408,-0.001065264455974102,4.967828
-0.40701428055763245,0.3519476354122162,-9.734824180603027,0.011717909015715122,-0.002130528911948204,-0.002130528911948204,4.972831
-0.4165911078453064,0.38307225704193115,-9.569623947143555,-0.014913702383637428,-0.002130528911948204,-0.002130528911948204,4.977827
-0.3926490843296051,0.47405192255973816,-9.545681953430176,-0.015978965908288956,-0.004261057823896408,-0.004261057823896408,4.982835
-0.38546648621559143,0.4118026793003082,-9.751583099365234,0.01810949482023716,-0.003195793367922306,-0.002130528911948204,4.987833
-0.3663128614425659,0.3687070608139038,-9.849745750427246,0.012783173471689224,-0.004261057823896408,-0.002130528911948204,4.992829
-0.363918662071228,0.42856210470199585,-9.742006301879883,-0.013848437927663326,-0.001065264455974102,-0.001065264455974102,4.99783
-0.3495534360408783,0.4596867263317108,-9.667786598205566,-0.00532632227987051,-0.003195793367922306,-0.002130528911948204,5.00283
-0.3471592366695404,0.40701428055763245,-9.718064308166504,0.008522115647792816,-0.004261057823896408,-0.002130528911948204,5.007833
-0.3734954595565796,0.4165911078453064,-9.742006301879883,-0.003195793367922306,-0.003195793367922306,-0.003195793367922306,5.012841
-0.4189853072166443,0.4213795065879822,-9.742006301879883,-0.002130528911948204,-0.004261057823896408,-0.003195793367922306,5.017837
-0.4429273009300232,0.4141969084739685,-9.68933391571045,0.003195793367922306,-0.002130528911948204,-0.002130528911948204,5.022833
-0.43095630407333374,0.45010992884635925,-9.655815124511719,-0.006391586735844612,-0.002130528911948204,-0.001065264455974102,5.027832
-0.4118026793003082,0.45250412821769714,-9.679757118225098,-0.003195793367922306,-0.004261057823896408,-0.002130528911948204,5.032832
-0.37828385829925537,0.43095630407333374,-9.691728591918945,0.0,-0.003195793367922306,-0.002130528911948204,5.037839
-0.3495534360408783,0.4596867263317108,-9.710882186889648,-0.002130528911948204,-0.004261057823896408,-0.002130528911948204,5.042833
-0.363918662071228,0.4620809257030487,-9.773131370544434,0.008522115647792816,-0.004261057823896408,-0.001065264455974102,5.04784
-0.3711012601852417,0.3878606855869293,-9.797073364257812,0.006391586735844612,-0.002130528911948204,-0.002130528911948204,5.052838
-0.3663128614425659,0.42856210470199585,-9.730035781860352,-0.008522115647792816,-0.001065264455974102,-0.003195793367922306,5.057836
-0.3663128614425659,0.40940847992897034,-9.691728591918945,-0.006391586735844612,-0.002130528911948204,-0.001065264455974102,5.062834
-0.3663128614425659,0.37828385829925537,-9.651026725769043,0.004261057823896408,-0.002130528911948204,-0.001065264455974102,5.067834
-0.35913026332855225,0.42377370595932007,-9.615114212036133,-0.004261057823896408,-0.001065264455974102,-0.001065264455974102,5.072838
-0.3687070608139038,0.4357447028160095,-9.667786598205566,-0.002130528911948204,-0.00532632227987051,-0.002130528911948204,5.077835
-0.40940847992897034,0.4381389021873474,-9.75637149810791,0.004261057823896408,-0.002130528911948204,-0.002130528911948204,5.082846
-0.45010992884635925,0.45250412821769714,-9.782708168029785,0.0,-0.002130528911948204,-0.002130528911948204,5.087841
-0.4357447028160095,0.44532153010368347,-9.703699111938477,0.001065264455974102,-0.002130528911948204,-0.002130528911948204,5.092838
-0.3926490843296051,0.42377370595932007,-9.682151794433594,0.004261057823896408,-0.001065264455974102,-0.002130528911948204,5.097836
-0.363918662071228,0.3974374830722809,-9.646238327026367,-0.003195793367922306,-0.002130528911948204,0.0,5.102838
-0.33039984107017517,0.3902548849582672,-9.660603523254395,-0.002130528911948204,-0.00532632227987051,0.001065264455974102,5.107841
-0.33997663855552673,0.363918662071228,-9.730035781860352,0.00532632227987051,-0.003195793367922306,-0.002130528911948204,5.112838
-0.33518823981285095,0.3711012601852417,-9.746794700622559,0.002130528911948204,-0.003195793367922306,-0.001065264455974102,5.117846
-0.3878606855869293,0.40701428055763245,-9.715670585632324,-0.00532632227987051,-0.00532632227987051,-0.001065264455974102,5.12284
-0.40222588181495667,0.4213795065879822,-9.710882186889648,-0.00532632227987051,-0.003195793367922306,-0.002130528911948204,5.127839
-0.43095630407333374,0.4165911078453064,-9.68933391571045,-0.004261057823896408,-0.004261057823896408,-0.002130528911948204,5.132839
-0.43335050344467163,0.4189853072166443,-9.706093788146973,0.004261057823896408,-0.00532632227987051,-0.001065264455974102,5.137846
-0.40940847992897034,0.3878606855869293,-9.739612579345703,0.008522115647792816,-0.003195793367922306,-0.002130528911948204,5.142842
-0.36152446269989014,0.33997663855552673,-9.732429504394531,0.002130528911948204,-0.003195793367922306,-0.003195793367922306,5.147848
-0.3711012601852417,0.3902548849582672,-9.694122314453125,-0.008522115647792816,-0.001065264455974102,-0.002130528911948204,5.152846
-0.3734954595565796,0.4118026793003082,-9.68694019317627,-0.00532632227987051,-0.001065264455974102,-0.001065264455974102,5.157843
-0.3711012601852417,0.4165911078453064,-9.701305389404297,0.003195793367922306,-0.003195793367922306,-0.002130528911948204,5.162841
-0.4141969084739685,0.42616790533065796,-9.727641105651855,-0.001065264455974102,-0.004261057823896408,-0.001065264455974102,5.167842
-0.4165911078453064,0.4429273009300232,-9.718064308166504,-0.004261057823896408,-0.002130528911948204,-0.00532632227987051,5.172846
-0.4141969084739685,0.4668693244457245,-9.737217903137207,-0.002130528911948204,-0.001065264455974102,-0.004261057823896408,5.177844
-0.4189853072166443,0.47644615173339844,-9.732429504394531,0.0,-0.004261057823896408,-0.001065264455974102,5.182854
-0.4141969084739685,0.45489832758903503,-9.718064308166504,0.004261057823896408,-0.002130528911948204,-0.001065264455974102,5.187848
-0.40462008118629456,0.45489832758903503,-9.691728591918945,0.0,0.0,-0.001065264455974102,5.192845
-0.38307225704193115,0.4620809257030487,-9.658209800720215,-0.003195793367922306,-0.001065264455974102,-0.002130528911948204,5.197844
-0.3711012601852417,0.4644751250743866,-9.691728591918945,-0.002130528911948204,-0.003195793367922306,-0.001065264455974102,5.202848
-0.38067805767059326,0.45489832758903503,-9.737217903137207,0.001065264455974102,-0.002130528911948204,-0.001065264455974102,5.20785
-0.363918662071228,0.4692635238170624,-9.713275909423828,-0.002130528911948204,-0.002130528911948204,-0.001065264455974102,5.212847
-0.3734954595565796,0.4668693244457245,-9.715670585632324,-0.002130528911948204,-0.002130528911948204,-0.001065264455974102,5.217854
-0.3926490843296051,0.47405192255973816,-9.710882186889648,0.0,-0.002130528911948204,-0.002130528911948204,5.222849
-0.4165911078453064,0.4596867263317108,-9.720458984375,0.0,-0.002130528911948204,-0.002130528911948204,5.227849
-0.3926490843296051,0.4118026793003082,-9.701305389404297,0.004261057823896408,-0.003195793367922306,0.0,5.232847
-0.4213795065879822,0.43335050344467163,-9.66299819946289,0.002130528911948204,-0.00532632227987051,-0.003195793367922306,5.237854
-0.4118026793003082,0.43335050344467163,-9.684545516967773,-0.001065264455974102,-0.003195793367922306,-0.001065264455974102,5.242852
-0.3998316824436188,0.38546648621559143,-9.72285270690918,0.001065264455974102,-0.003195793367922306,0.0,5.247856
-0.3734954595565796,0.38067805767059326,-9.720458984375,-0.002130528911948204,-0.002130528911948204,-0.002130528911948204,5.252854
-0.3878606855869293,0.40222588181495667,-9.677363395690918,-0.003195793367922306,-0.002130528911948204,0.0,5.257851
-0.363918662071228,0.38546648621559143,-9.710882186889648,0.002130528911948204,-0.004261057823896408,-0.001065264455974102,5.262849
-0.3471592366695404,0.3687070608139038,-9.749189376831055,0.003195793367922306,-0.002130528911948204,-0.001065264455974102,5.267851
-0.36152446269989014,0.40222588181495667,-9.710882186889648,-0.003195793367922306,-0.001065264455974102,-0.001065264455974102,5.272855
-0.4118026793003082,0.40462008118629456,-9.734824180603027,-0.002130528911948204,-0.001065264455974102,-0.003195793367922306,5.27785
-0.38546648621559143,0.395043283700943,-9.742006301879883,0.004261057823896408,-0.001065264455974102,-0.003195793367922306,5.28286
-0.40462008118629456,0.40222588181495667,-9.730035781860352,0.0,0.0,-0.001065264455974102,5.287856
-0.42377370595932007,0.40462008118629456,-9.679757118225098,-0.004261057823896408,-0.003195793367922306,-0.001065264455974102,5.292853
-0.42616790533065796,0.4357447028160095,-9.706093788146973,-0.002130528911948204,-0.002130528911948204,-0.001065264455974102,5.297853
-0.4141969084739685,0.4189853072166443,-9.706093788146973,0.0,-0.001065264455974102,0.0,5.302857
-0.40940847992897034,0.42377370595932007,-9.703699111938477,-0.00532632227987051,-0.002130528911948204,-0.004261057823896408,5.307858
-0.3902548849582672,0.45010992884635925,-9.730035781860352,-0.002130528911948204,-0.002130528911948204,-0.002130528911948204,5.312855
-0.40222588181495667,0.4189853072166443,-9.72285270690918,0.003195793367922306,-0.002130528911948204,-0.001065264455974102,5.317862
-0.3926490843296051,0.43335050344467163,-9.703699111938477,-0.002130528911948204,-0.002130528911948204,-0.001065264455974102,5.322857
-0.38307225704193115,0.4381389021873474,-9.696516990661621,0.002130528911948204,-0.002130528911948204,-0.001065264455974102,5.327857
-0.3758896589279175,0.40701428055763245,-9.706093788146973,0.004261057823896408,-0.001065264455974102,-0.002130528911948204,5.332856
-0.363918662071228,0.40222588181495667,-9.694122314453125,-0.002130528911948204,-0.003195793367922306,-0.001065264455974102,5.337862
-0.3902548849582672,0.42856210470199585,-9.677363395690918,-0.003195793367922306,-0.004261057823896408,-0.001065264455974102,5.342857
-0.37828385829925537,0.43095630407333374,-9.710882186889648,0.001065264455974102,-0.001065264455974102,-0.001065264455974102,5.347865
-0.36152446269989014,0.4141969084739685,-9.696516990661621,0.001065264455974102,-0.003195793367922306,-0.002130528911948204,5.352862
-0.40462008118629456,0.44532153010368347,-9.703699111938477,-0.004261057823896408,-0.002130528911948204,-0.002130528911948204,5.35786
-0.37828385829925537,0.4165911078453064,-9.68933391571045,0.0,-0.001065264455974102,-0.004261057823896408,5.362858
-0.36152446269989014,0.43095630407333374,-9.730035781860352,0.001065264455974102,-0.001065264455974102,-0.003195793367922306,5.367858
-0.3902548849582672,0.43335050344467163,-9.6989107131958,-0.001065264455974102,-0.002130528911948204,-0.002130528911948204,5.372863
-0.37828385829925537,0.44532153010368347,-9.670180320739746,0.002130528911948204,-0.001065264455974102,-0.002130528911948204,5.377859
-0.3734954595565796,0.40940847992897034,-9.706093788146973,0.001065264455974102,-0.004261057823896408,-0.003195793367922306,5.382869
-0.38546648621559143,0.40701428055763245,-9.725247383117676,0.0,-0.004261057823896408,-0.001065264455974102,5.387864
-0.3974374830722809,0.42856210470199585,-9.677363395690918,-0.004261057823896408,-0.004261057823896408,-0.002130528911948204,5.392861
-0.3758896589279175,0.4381389021873474,-9.684545516967773,-0.001065264455974102,-0.003195793367922306,-0.001065264455974102,5.39786
-0.38067805767059326,0.4213795065879822,-9.718064308166504,0.001065264455974102,-0.002130528911948204,-0.002130528911948204,5.402865
-0.40222588181495667,0.3974374830722809,-9.703699111938477,-0.001065264455974102,-0.003195793367922306,-0.002130528911948204,5.407865
-0.37828385829925537,0.40462008118629456,-9.706093788146973,0.001065264455974102,-0.003195793367922306,-0.004261057823896408,5.412863
-0.38067805767059326,0.40701428055763245,-9.68694019317627,0.001065264455974102,-0.002130528911948204,-0.004261057823896408,5.41787
-0.37828385829925537,0.40701428055763245,-9.694122314453125,-0.003195793367922306,-0.003195793367922306,-0.003195793367922306,5.422865
-0.38067805767059326,0.40222588181495667,-9.706093788146973,0.001065264455974102,-0.002130528911948204,-0.002130528911948204,5.427864
-0.3974374830722809,0.4141969084739685,-9.710882186889648,0.001065264455974102,-0.003195793367922306,-0.002130528911948204,5.432863
-0.3998316824436188,0.4213795065879822,-9.718064308166504,-0.001065264455974102,-0.003195793367922306,-0.002130528911948204,5.437871
-0.3926490843296051,0.42377370595932007,-9.718064308166504,-0.001065264455974102,-0.001065264455974102,-0.001065264455974102,5.442866
-0.395043283700943,0.43335050344467163,-9.703699111938477,-0.001065264455974102,-0.002130528911948204,-0.001065264455974102,5.447872
-0.43095630407333374,0.42377370595932007,-9.706093788146973,0.0,-0.003195793367922306,-0.001065264455974102,5.452871
-0.4165911078453064,0.43095630407333374,-9.701305389404297,0.0,-0.003195793367922306,-0.001065264455974102,5.457867
-0.4141969084739685,0.4357447028160095,-9.706093788146973,0.0,-0.002130528911948204,-0.002130528911948204,5.462865
-0.3926490843296051,0.4189853072166443,-9.696516990661621,0.0,-0.002130528911948204,-0.002130528911948204,5.467866
-0.3926490843296051,0.42377370595932007,-9.720458984375,0.001065264455974102,-0.002130528911948204,-0.003195793367922306,5.472871
-0.3926490843296051,0.4118026793003082,-9.715670585632324,0.0,-0.003195793367922306,-0.001065264455974102,5.477868
-0.40222588181495667,0.42616790533065796,-9.715670585632324,0.0,-0.004261057823896408,0.0,5.482878
-0.38067805767059326,0.4429273009300232,-9.708487510681152,0.0,-0.003195793367922306,-0.001065264455974102,5.487872
-0.38067805767059326,0.45250412821769714,-9.713275909423828,-0.001065264455974102,-0.003195793367922306,-0.001065264455974102,5.49287
-0.363918662071228,0.4357447028160095,-9.710882186889648,-0.002130528911948204,-0.003195793367922306,-0.002130528911948204,5.497868
-0.3687070608139038,0.40701428055763245,-9.720458984375,-0.001065264455974102,-0.003195793367922306,-0.002130528911948204,5.502872
-0.3926490843296051,0.42377370595932007,-9.715670585632324,0.0,-0.001065264455974102,-0.001065264455974102,5.507873
-0.3734954595565796,0.42616790533065796,-9.68933391571045,0.0,-0.003195793367922306,-0.002130528911948204,5.512873
-0.3878606855869293,0.40940847992897034,-9.706093788146973,0.002130528911948204,-0.003195793367922306,-0.001065264455974102,5.517878
-0.3902548849582672,0.4165911078453064,-9.72285270690918,0.0,-0.002130528911948204,0.0,5.522873
-0.37828385829925537,0.40701428055763245,-9.727641105651855,-0.001065264455974102,-0.002130528911948204,-0.001065264455974102,5.527871
-0.38546648621559143,0.40462008118629456,-9.710882186889648,-0.002130528911948204,-0.001065264455974102,-0.002130528911948204,5.532871
-0.4141969084739685,0.42856210470199585,-9.706093788146973,-0.002130528911948204,-0.003195793367922306,-0.001065264455974102,5.537879
-0.40222588181495667,0.4165911078453064,-9.75397777557373,-0.002130528911948204,-0.003195793367922306,-0.003195793367922306,5.542876
-0.395043283700943,0.395043283700943,-9.734824180603027,0.0,-0.001065264455974102,-0.001065264455974102,5.547882
-0.4118026793003082,0.4165911078453064,-9.696516990661621,-0.002130528911948204,-0.001065264455974102,-0.002130528911948204,5.552879
-0.40462008118629456,0.4357447028160095,-9.694122314453125,-0.002130528911948204,-0.002130528911948204,-0.002130528911948204,5.557875
-0.3998316824436188,0.4357447028160095,-9.706093788146973,0.002130528911948204,-0.003195793367922306,-0.001065264455974102,5.562873
-0.3902548849582672,0.4357447028160095,-9.6989107131958,0.001065264455974102,-0.003195793367922306,-0.001065264455974102,5.567875
-0.3663128614425659,0.42377370595932007,-9.718064308166504,0.0,-0.002130528911948204,-0.001065264455974102,5.572879
-0.363918662071228,0.43095630407333374,-9.715670585632324,-0.001065264455974102,-0.001065264455974102,0.0,5.577875
-0.35913026332855225,0.4118026793003082,-9.713275909423828,-0.001065264455974102,-0.001065264455974102,-0.002130528911948204,5.582886
-0.3687070608139038,0.42856210470199585,-9.715670585632324,-0.002130528911948204,-0.003195793367922306,-0.001065264455974102,5.58788
-0.3711012601852417,0.43095630407333374,-9.701305389404297,0.0,-0.002130528911948204,-0.002130528911948204,5.592877
-0.38307225704193115,0.40940847992897034,-9.727641105651855,0.0,-0.001065264455974102,-0.001065264455974102,5.597878
-0.38067805767059326,0.42377370595932007,-9.713275909423828,-0.002130528911948204,0.0,-0.001065264455974102,5.602881
-0.3878606855869293,0.43335050344467163,-9.68933391571045,-0.002130528911948204,-0.001065264455974102,-0.003195793367922306,5.607881
-0.395043283700943,0.43335050344467163,-9.701305389404297,-0.001065264455974102,-0.003195793367922306,-0.001065264455974102,5.612885
-0.37828385829925537,0.42377370595932007,-9.706093788146973,0.0,-0.002130528911948204,-0.002130528911948204,5.617885
-0.3926490843296051,0.4213795065879822,-9.713275909423828,-0.002130528911948204,-0.002130528911948204,-0.003195793367922306,5.62288
-0.38546648621559143,0.42377370595932007,-9.706093788146973,-0.003195793367922306,-0.004261057823896408,-0.002130528911948204,5.62788
-0.3758896589279175,0.42377370595932007,-9.696516990661621,0.001065264455974102,-0.002130528911948204,-0.002130528911948204,5.63288
-0.3687070608139038,0.40701428055763245,-9.710882186889648,0.001065264455974102,-0.003195793367922306,-0.001065264455974102,5.637885
-0.3711012601852417,0.42377370595932007,-9.706093788146973,-0.001065264455974102,-0.003195793367922306,0.0,5.642882
-0.38546648621559143,0.43095630407333374,-9.708487510681152,-0.002130528911948204,-0.002130528911948204,-0.001065264455974102,5.647891
-0.3711012601852417,0.43335050344467163,-9.72285270690918,0.001065264455974102,-0.003195793367922306,-0.002130528911948204,5.652887
-0.3974374830722809,0.40701428055763245,-9.715670585632324,-0.003195793367922306,-0.002130528911948204,-0.002130528911948204,5.657884
-0.3926490843296051,0.42616790533065796,-9.68933391571045,-0.001065264455974102,-0.002130528911948204,-0.001065264455974102,5.662882
-0.40462008118629456,0.40222588181495667,-9.725247383117676,-0.001065264455974102,-0.004261057823896408,-0.002130528911948204,5.667882
-0.42616790533065796,0.4141969084739685,-9.732429504394531,-0.001065264455974102,-0.002130528911948204,0.0,5.672887
-0.4213795065879822,0.42616790533065796,-9.684545516967773,-0.002130528911948204,-0.002130528911948204,-0.001065264455974102,5.677883
-0.4141969084739685,0.42616790533065796,-9.6989107131958,0.0,-0.002130528911948204,-0.003195793367922306,5.682894
-0.3998316824436188,0.3974374830722809,-9.718064308166504,0.001065264455974102,-0.002130528911948204,-0.001065264455974102,5.687889
-0.3734954595565796,0.4165911078453064,-9.715670585632324,0.0,-0.001065264455974102,-0.001065264455974102,5.692885
-0.363918662071228,0.42377370595932007,-9.694122314453125,-0.001065264455974102,-0.002130528911948204,0.0,5.697886
-0.363918662071228,0.40701428055763245,-9.706093788146973,-0.001065264455974102,-0.001065264455974102,-0.002130528911948204,5.702891
-0.3663128614425659,0.3998316824436188,-9.6989107131958,0.001065264455974102,-0.001065264455974102,-0.002130528911948204,5.70789
-0.3734954595565796,0.4189853072166443,-9.718064308166504,0.0,-0.003195793367922306,-0.002130528911948204,5.712889
-0.3878606855869293,0.4141969084739685,-9.72285270690918,-0.001065264455974102,-0.004261057823896408,-0.003195793367922306,5.717894
-0.38546648621559143,0.42377370595932007,-9.713275909423828,-0.001065264455974102,-0.002130528911948204,-0.002130528911948204,5.722889
-0.38067805767059326,0.43335050344467163,-9.696516990661621,-0.001065264455974102,-0.003195793367922306,-0.002130528911948204,5.727887
-0.3902548849582672,0.43095630407333374,-9.68694019317627,-0.001065264455974102,-0.003195793367922306,-0.001065264455974102,5.732887
-0.40462008118629456,0.43095630407333374,-9.720458984375,0.0,-0.002130528911948204,-0.001065264455974102,5.737895
-0.3878606855869293,0.4405331015586853,-9.715670585632324,-0.001065264455974102,0.0,0.0,5.74289
-0.3998316824436188,0.43095630407333374,-9.720458984375,-0.001065264455974102,-0.001065264455974102,-0.002130528911948204,5.747898
-0.3998316824436188,0.4405331015586853,-9.68933391571045,0.0,-0.002130528911948204,-0.002130528911948204,5.752895
-0.4189853072166443,0.4165911078453064,-9.72285270690918,-0.001065264455974102,-0.001065264455974102,-0.003195793367922306,5.757891
-0.3974374830722809,0.44532153010368347,-9.727641105651855,0.001065264455974102,-0.001065264455974102,-0.002130528911948204,5.76289
-0.3926490843296051,0.44532153010368347,-9.710882186889648,0.0,-0.002130528911948204,-0.002130528911948204,5.76789
-0.4118026793003082,0.43335050344467163,-9.720458984375,0.0,-0.002130528911948204,-0.002130528911948204,5.772895
-0.38307225704193115,0.43335050344467163,-9.691728591918945,-0.002130528911948204,-0.001065264455974102,-0.002130528911948204,5.777892
-0.3734954595565796,0.4429273009300232,-9.703699111938477,0.001065264455974102,-0.002130528911948204,-0.001065264455974102,5.7829
-0.363918662071228,0.4357447028160095,-9.715670585632324,0.003195793367922306,-0.001065264455974102,-0.001065264455974102,5.787896
-0.3734954595565796,0.43335050344467163,-9.72285270690918,0.002130528911948204,-0.001065264455974102,-0.001065264455974102,5.792894
-0.3711012601852417,0.43335050344467163,-9.684545516967773,0.0,-0.003195793367922306,-0.002130528911948204,5.797893
-0.3734954595565796,0.4189853072166443,-9.701305389404297,-0.001065264455974102,-0.002130528911948204,0.0,5.802899
-0.3758896589279175,0.40701428055763245,-9.715670585632324,-0.001065264455974102,-0.001065264455974102,-0.001065264455974102,5.807898
-0.3734954595565796,0.42616790533065796,-9.708487510681152,-0.001065264455974102,-0.001065264455974102,-0.001065264455974102,5.812898
-0.38546648621559143,0.40462008118629456,-9.706093788146973,-0.001065264455974102,-0.002130528911948204,-0.003195793367922306,5.817902
-0.3758896589279175,0.4141969084739685,-9.6989107131958,-0.002130528911948204,-0.001065264455974102,-0.002130528911948204,5.822897
-0.38067805767059326,0.4189853072166443,-9.710882186889648,0.0,0.0,-0.001065264455974102,5.827895
-0.3711012601852417,0.4189853072166443,-9.713275909423828,0.0,-0.001065264455974102,-0.002130528911948204,5.832895
-0.38546648621559143,0.43335050344467163,-9.694122314453125,0.0,-0.001065264455974102,-0.002130528911948204,5.837901
-0.40462008118629456,0.40940847992897034,-9.658209800720215,0.001065264455974102,-0.002130528911948204,-0.002130528911948204,5.8429
-0.3974374830722809,0.4381389021873474,-9.68933391571045,0.001065264455974102,-0.003195793367922306,-0.001065264455974102,5.847903
-0.37828385829925537,0.43335050344467163,-9.75397777557373,0.003195793367922306,-0.003195793367922306,-0.002130528911948204,5.852903
-0.3926490843296051,0.4165911078453064,-9.725247383117676,0.002130528911948204,-0.003195793367922306,-0.002130528911948204,5.857899
-0.38546648621559143,0.4405331015586853,-9.715670585632324,-0.002130528911948204,-0.003195793367922306,-0.001065264455974102,5.862898
-0.40701428055763245,0.4189853072166443,-9.696516990661621,-0.002130528911948204,-0.002130528911948204,0.0,5.867899
-0.40462008118629456,0.43095630407333374,-9.718064308166504,0.001065264455974102,0.0,0.0,5.872903
-0.4165911078453064,0.4165911078453064,-9.730035781860352,0.001065264455974102,-0.001065264455974102,-0.001065264455974102,5.877899
-0.3902548849582672,0.42616790533065796,-9.732429504394531,0.001065264455974102,-0.001065264455974102,-0.001065264455974102,5.882911
-0.395043283700943,0.42616790533065796,-9.708487510681152,-0.001065264455974102,-0.002130528911948204,-0.001065264455974102,5.887904
-0.3974374830722809,0.4141969084739685,-9.651026725769043,-0.002130528911948204,-0.002130528911948204,-0.002130528911948204,5.892901
-0.38067805767059326,0.4429273009300232,-9.691728591918945,-0.001065264455974102,-0.002130528911948204,0.0,5.897902
-0.37828385829925537,0.43095630407333374,-9.68694019317627,0.0,-0.002130528911948204,-0.001065264455974102,5.902906
-0.3902548849582672,0.42616790533065796,-9.6989107131958,-0.001065264455974102,-0.003195793367922306,-0.002130528911948204,5.907906
-0.3711012601852417,0.42377370595932007,-9.710882186889648,0.002130528911948204,-0.001065264455974102,-0.003195793367922306,5.912905
-0.3758896589279175,0.40940847992897034,-9.725247383117676,0.001065264455974102,-0.004261057823896408,-0.002130528911948204,5.917911
-0.3734954595565796,0.43335050344467163,-9.732429504394531,-0.003195793367922306,-0.00532632227987051,-0.001065264455974102,5.922905
-0.3711012601852417,0.4429273009300232,-9.746794700622559,0.001065264455974102,-0.001065264455974102,-0.002130528911948204,5.927904
-0.3519476354122162,0.4141969084739685,-9.780313491821289,0.004261057823896408,-0.001065264455974102,-0.002130528911948204,5.932904
-0.35913026332855225,0.4141969084739685,-9.72285270690918,-0.001065264455974102,0.0,-0.002130528911948204,5.937911
-0.3878606855869293,0.4141969084739685,-9.677363395690918,-0.003195793367922306,-0.002130528911948204,-0.003195793367922306,5.942905
-0.3998316824436188,0.3998316824436188,-9.694122314453125,0.002130528911948204,-0.003195793367922306,-0.002130528911948204,5.947913
-0.40940847992897034,0.40222588181495667,-9.682151794433594,0.0,-0.003195793367922306,-0.003195793367922306,5.952911
-0.40940847992897034,0.4429273009300232,-9.677363395690918,0.0,-0.002130528911948204,-0.002130528911948204,5.957908
-0.3902548849582672,0.42377370595932007,-9.706093788146973,0.002130528911948204,-0.003195793367922306,-0.002130528911948204,5.962907
-0.38546648621559143,0.3974374830722809,-9.725247383117676,0.001065264455974102,-0.004261057823896408,-0.003195793367922306,5.967906
-0.3711012601852417,0.4118026793003082,-9.742006301879883,0.0,-0.002130528911948204,-0.003195793367922306,5.972911
-0.3447650372982025,0.38307225704193115,-9.727641105651855,0.0,-0.001065264455974102,0.0,5.977907
-0.3447650372982025,0.3902548849582672,-9.68694019317627,-0.001065264455974102,-0.003195793367922306,-0.001065264455974102,5.982918
-0.3734954595565796,0.40940847992897034,-9.710882186889648,-0.002130528911948204,-0.003195793367922306,-0.003195793367922306,5.987914
-0.3926490843296051,0.40222588181495667,-9.703699111938477,-0.001065264455974102,-0.002130528911948204,-0.004261057823896408,5.992913
-0.4165911078453064,0.43095630407333374,-9.715670585632324,-0.001065264455974102,0.0,-0.003195793367922306,5.997909
-0.4165911078453064,0.4357447028160095,-9.6989107131958,0.0,-0.001065264455974102,-0.001065264455974102,6.002913
-0.4118026793003082,0.40462008118629456,-9.710882186889648,0.0,-0.003195793367922306,-0.001065264455974102,6.007914
-0.38546648621559143,0.4213795065879822,-9.710882186889648,0.0,-0.001065264455974102,0.0,6.012913
-0.3926490843296051,0.42616790533065796,-9.701305389404297,-0.002130528911948204,-0.002130528911948204,-0.002130528911948204,6.017919
-0.3878606855869293,0.42616790533065796,-9.696516990661621,-0.002130528911948204,-0.002130528911948204,-0.002130528911948204,6.022913
-0.3519476354122162,0.4189853072166443,-9.696516990661621,0.002130528911948204,-0.003195793367922306,0.0,6.027911
-0.363918662071228,0.42856210470199585,-9.708487510681152,-0.001065264455974102,-0.002130528911948204,-0.002130528911948204,6.032912
-0.3687070608139038,0.45010992884635925,-9.679757118225098,-0.003195793367922306,-0.003195793367922306,-0.002130528911948204,6.037918
-0.35673606395721436,0.4620809257030487,-9.696516990661621,0.001065264455974102,-0.002130528911948204,-0.003195793367922306,6.042914
-0.35913026332855225,0.4213795065879822,-9.694122314453125,0.001065264455974102,-0.00532632227987051,-0.003195793367922306,6.047922
-0.3687070608139038,0.42377370595932007,-9.706093788146973,-0.001065264455974102,-0.004261057823896408,-0.002130528911948204,6.05292
-0.40462008118629456,0.42856210470199585,-9.694122314453125,0.001065264455974102,-0.002130528911948204,-0.003195793367922306,6.057916
-0.3878606855869293,0.4381389021873474,-9.706093788146973,0.0,-0.00532632227987051,-0.001065264455974102,6.062914
-0.40462008118629456,0.4620809257030487,-9.742006301879883,-0.002130528911948204,-0.004261057823896408,0.0,6.067915
-0.4213795065879822,0.45489832758903503,-9.718064308166504,0.002130528911948204,-0.002130528911948204,-0.003195793367922306,6.072919
-0.4118026793003082,0.45250412821769714,-9.734824180603027,0.001065264455974102,-0.002130528911948204,-0.002130528911948204,6.077917
-0.40222588181495667,0.44532153010368347,-9.703699111938477,-0.002130528911948204,-0.002130528911948204,-0.002130528911948204,6.082927
-0.3974374830722809,0.42856210470199585,-9.710882186889648,0.0,-0.003195793367922306,-0.001065264455974102,6.087921
-0.395043283700943,0.4141969084739685,-9.708487510681152,-0.002130528911948204,-0.003195793367922306,-0.002130528911948204,6.092918
-0.40701428055763245,0.44532153010368347,-9.703699111938477,-0.002130528911948204,-0.003195793367922306,-0.003195793367922306,6.097917
-0.4118026793003082,0.44771572947502136,-9.744400978088379,0.002130528911948204,-0.00532632227987051,0.0,6.102923
-0.3974374830722809,0.4572925269603729,-9.727641105651855,0.002130528911948204,-0.00532632227987051,-0.001065264455974102,6.107923
-0.3902548849582672,0.45010992884635925,-9.725247383117676,-0.001065264455974102,-0.003195793367922306,-0.003195793367922306,6.112922
-0.40222588181495667,0.4381389021873474,-9.725247383117676,0.002130528911948204,-0.003195793367922306,-0.002130528911948204,6.117926
-0.40701428055763245,0.4213795065879822,-9.744400978088379,0.001065264455974102,-0.002130528911948204,-0.002130528911948204,6.122922
-0.37828385829925537,0.40940847992897034,-9.694122314453125,-0.002130528911948204,-0.003195793367922306,-0.003195793367922306,6.12792
-0.40701428055763245,0.42377370595932007,-9.701305389404297,0.0,-0.002130528911948204,-0.003195793367922306,6.13292
-0.40701428055763245,0.3878606855869293,-9.706093788146973,0.003195793367922306,-0.001065264455974102,-0.001065264455974102,6.137928
-0.3974374830722809,0.3711012601852417,-9.72285270690918,0.003195793367922306,-0.003195793367922306,-0.002130528911948204,6.142925
-0.4189853072166443,0.38546648621559143,-9.737217903137207,0.002130528911948204,-0.004261057823896408,-0.002130528911948204,6.147929
-0.43335050344467163,0.4213795065879822,-9.677363395690918,-0.00532632227987051,-0.003195793367922306,-0.002130528911948204,6.152927
-0.43335050344467163,0.4357447028160095,-9.68933391571045,0.0,-0.001065264455974102,-0.002130528911948204,6.157924
-0.4381389021873474,0.40940847992897034,-9.78989028930664,0.013848437927663326,-0.003195793367922306,0.0,6.162923
-0.3998316824436188,0.3902548849582672,-9.727641105651855,0.0,-0.002130528911948204,-0.001065264455974102,6.167924
-0.4118026793003082,0.4596867263317108,-9.658209800720215,-0.012783173471689224,-0.001065264455974102,-0.002130528911948204,6.172929
-0.4118026793003082,0.4165911078453064,-9.725247383117676,0.004261057823896408,-0.001065264455974102,-0.002130528911948204,6.177924
-0.38067805767059326,0.36152446269989014,-9.746794700622559,0.007456851191818714,-0.001065264455974102,-0.002130528911948204,6.182935
-0.38067805767059326,0.40701428055763245,-9.708487510681152,-0.008522115647792816,-0.002130528911948204,-0.003195793367922306,6.187929
-0.3758896589279175,0.3974374830722809,-9.715670585632324,-0.001065264455974102,-0.001065264455974102,-0.002130528911948204,6.192926
-0.3758896589279175,0.3902548849582672,-9.718064308166504,0.007456851191818714,0.002130528911948204,-0.002130528911948204,6.197927
-0.38067805767059326,0.38546648621559143,-9.708487510681152,-0.002130528911948204,-0.001065264455974102,-0.002130528911948204,6.202932
-0.38546648621559143,0.3926490843296051,-9.6989107131958,-0.003195793367922306,-0.001065264455974102,-0.002130528911948204,6.207931
-0.35673606395721436,0.38546648621559143,-9.72285270690918,0.004261057823896408,0.0,-0.001065264455974102,6.212928
-0.3926490843296051,0.3998316824436188,-9.703699111938477,0.0,-0.001065264455974102,0.0,6.217935
-0.37828385829925537,0.3998316824436188,-9.682151794433594,-0.006391586735844612,-0.002130528911948204,-0.001065264455974102,6.22293
-0.3519476354122162,0.40940847992897034,-9.696516990661621,0.0,-0.001065264455974102,-0.001065264455974102,6.227929
-0.33997663855552673,0.38067805767059326,-9.706093788146973,0.004261057823896408,-0.002130528911948204,-0.001065264455974102,6.232929
-0.36152446269989014,0.4141969084739685,-9.708487510681152,-0.00532632227987051,-0.001065264455974102,-0.001065264455974102,6.237935
-0.3902548849582672,0.40222588181495667,-9.710882186889648,-0.001065264455974102,-0.001065264455974102,-0.001065264455974102,6.24293
-0.35913026332855225,0.4141969084739685,-9.703699111938477,0.001065264455974102,-0.002130528911948204,-0.002130528911948204,6.247938
-0.36152446269989014,0.42377370595932007,-9.68933391571045,-0.003195793367922306,-0.001065264455974102,-0.001065264455974102,6.252936
-0.38546648621559143,0.43095630407333374,-9.696516990661621,0.002130528911948204,-0.001065264455974102,-0.002130528911948204,6.257933
-0.3878606855869293,0.4189853072166443,-9.720458984375,0.004261057823896408,-0.002130528911948204,-0.002130528911948204,6.262932
-0.37828385829925537,0.4381389021873474,-9.694122314453125,-0.002130528911948204,-0.002130528911948204,-0.002130528911948204,6.267931
-0.36152446269989014,0.40940847992897034,-9.706093788146973,-0.003195793367922306,-0.002130528911948204,-0.002130528911948204,6.272937
-0.38307225704193115,0.40462008118629456,-9.725247383117676,0.003195793367922306,-0.003195793367922306,0.001065264455974102,6.277932
-0.38307225704193115,0.40462008118629456,-9.710882186889648,0.0,-0.003195793367922306,-0.001065264455974102,6.282943
-0.3758896589279175,0.42856210470199585,-9.68694019317627,-0.003195793367922306,-0.004261057823896408,-0.002130528911948204,6.287937
-0.3711012601852417,0.4141969084739685,-9.725247383117676,0.003195793367922306,-0.003195793367922306,-0.002130528911948204,6.292935
-0.3998316824436188,0.43335050344467163,-9.706093788146973,-0.001065264455974102,-0.003195793367922306,-0.003195793367922306,6.297934
-0.3926490843296051,0.43095630407333374,-9.682151794433594,-0.003195793367922306,-0.002130528911948204,-0.003195793367922306,6.30294
-0.3711012601852417,0.4118026793003082,-9.706093788146973,0.001065264455974102,-0.002130528911948204,-0.001065264455974102,6.307939
-0.3878606855869293,0.3974374830722809,-9.732429504394531,0.002130528911948204,-0.002130528911948204,0.001065264455974102,6.312939
-0.3902548849582672,0.44532153010368347,-9.696516990661621,0.0,-0.003195793367922306,-0.003195793367922306,6.317944
-0.3926490843296051,0.4644751250743866,-9.703699111938477,0.001065264455974102,-0.00532632227987051,-0.003195793367922306,6.322939
-0.3878606855869293,0.45250412821769714,-9.734824180603027,0.0,-0.004261057823896408,-0.002130528911948204,6.327936
-0.3878606855869293,0.45489832758903503,-9.66299819946289,-0.002130528911948204,-0.003195793367922306,-0.003195793367922306,6.332937
-0.40222588181495667,0.4644751250743866,-9.68694019317627,-0.004261057823896408,-0.00532632227987051,-0.002130528911948204,6.337977
-0.40222588181495667,0.4357447028160095,-9.732429504394531,0.004261057823896408,-0.00532632227987051,-0.001065264455974102,6.342938
-0.4118026793003082,0.44532153010368347,-9.746794700622559,-0.001065264455974102,-0.003195793367922306,-0.002130528911948204,6.347946
-0.4118026793003082,0.4668693244457245,-9.696516990661621,-0.003195793367922306,-0.003195793367922306,-0.002130528911948204,6.352945
-0.4165911078453064,0.45489832758903503,-9.727641105651855,0.00532632227987051,-0.003195793367922306,-0.003195793367922306,6.357941
-0.4357447028160095,0.45010992884635925,-9.718064308166504,0.0,-0.002130528911948204,-0.003195793367922306,6.362939
-0.4189853072166443,0.45250412821769714,-9.691728591918945,-0.007456851191818714,-0.003195793367922306,-0.002130528911948204,6.36794
-0.4213795065879822,0.47405192255973816,-9.727641105651855,0.002130528911948204,-0.003195793367922306,-0.002130528911948204,6.372945
-0.4189853072166443,0.4357447028160095,-9.785101890563965,0.006391586735844612,0.0,-0.002130528911948204,6.377941
-0.4165911078453064,0.4405331015586853,-9.751583099365234,-0.006391586735844612,-0.001065264455974102,0.0,6.382952
-0.4381389021873474,0.4644751250743866,-9.727641105651855,-0.00532632227987051,-0.001065264455974102,0.0,6.387945
-0.40462008118629456,0.4189853072166443,-9.737217903137207,0.004261057823896408,-0.001065264455974102,-0.002130528911948204,6.392943
-0.40940847992897034,0.4213795065879822,-9.691728591918945,0.0,-0.003195793367922306,-0.001065264455974102,6.397942
-0.3926490843296051,0.40940847992897034,-9.691728591918945,0.0,-0.002130528911948204,-0.002130528911948204,6.402948
-0.3926490843296051,0.37828385829925537,-9.730035781860352,0.003195793367922306,-0.001065264455974102,-0.002130528911948204,6.407946
-0.3758896589279175,0.36152446269989014,-9.730035781860352,-0.001065264455974102,-0.002130528911948204,-0.001065264455974102,6.412947
-0.38307225704193115,0.3663128614425659,-9.739612579345703,-0.004261057823896408,-0.001065264455974102,-0.001065264455974102,6.417952
-0.4165911078453064,0.35673606395721436,-9.763554573059082,-0.002130528911948204,-0.001065264455974102,-0.001065264455974102,6.422946
-0.40462008118629456,0.3519476354122162,-9.732429504394531,0.0,-0.002130528911948204,0.0,6.427944
-0.40462008118629456,0.37828385829925537,-9.730035781860352,-0.004261057823896408,0.0,-0.001065264455974102,6.432945
-0.4141969084739685,0.37828385829925537,-9.66299819946289,-0.002130528911948204,0.0,-0.001065264455974102,6.437958
-0.42377370595932007,0.40222588181495667,-9.636661529541016,-0.004261057823896408,-0.001065264455974102,-0.001065264455974102,6.442948
-0.4572925269603729,0.4357447028160095,-9.653421401977539,-0.003195793367922306,-0.002130528911948204,-0.004261057823896408,6.447953
-0.4692635238170624,0.42856210470199585,-9.72285270690918,0.003195793367922306,-0.002130528911948204,-0.002130528911948204,6.452953
-0.44771572947502136,0.4596867263317108,-9.734824180603027,0.0,-0.002130528911948204,0.001065264455974102,6.457949
-0.44532153010368347,0.4668693244457245,-9.677363395690918,-0.00532632227987051,-0.002130528911948204,0.001065264455974102,6.462947
-0.4165911078453064,0.42377370595932007,-9.660603523254395,0.001065264455974102,-0.002130528911948204,0.0,6.46795
-0.3663128614425659,0.38546648621559143,-9.68933391571045,0.002130528911948204,-0.002130528911948204,0.0,6.472953
-0.35913026332855225,0.3878606855869293,-9.751583099365234,0.001065264455974102,-0.001065264455974102,0.0,6.477949
-0.3423708379268646,0.35434186458587646,-9.75637149810791,0.002130528911948204,0.0,0.0,6.48296
-0.3280056416988373,0.3208230137825012,-9.708487510681152,0.0,-0.002130528911948204,-0.001065264455974102,6.487955
-0.35434186458587646,0.33279404044151306,-9.66299819946289,-0.00532632227987051,-0.001065264455974102,-0.002130528911948204,6.492951
-0.3711012601852417,0.363918662071228,-9.677363395690918,-0.002130528911948204,-0.001065264455974102,-0.001065264455974102,6.497951
-0.3998316824436188,0.3687070608139038,-9.6989107131958,0.0,0.0,0.0,6.502956
-0.3902548849582672,0.363918662071228,-9.720458984375,-0.002130528911948204,-0.001065264455974102,-0.002130528911948204,6.507955
-0.3878606855869293,0.3687070608139038,-9.715670585632324,-0.002130528911948204,-0.002130528911948204,-0.001065264455974102,6.512954
-0.3663128614425659,0.3711012601852417,-9.713275909423828,-0.002130528911948204,-0.001065264455974102,-0.002130528911948204,6.51796
-0.363918662071228,0.3878606855869293,-9.674968719482422,-0.002130528911948204,-0.003195793367922306,-0.002130528911948204,6.522955
-0.36152446269989014,0.3974374830722809,-9.677363395690918,-0.001065264455974102,-0.004261057823896408,-0.002130528911948204,6.527954
-0.3423708379268646,0.3974374830722809,-9.72285270690918,0.0,-0.004261057823896408,-0.003195793367922306,6.532954
-0.3447650372982025,0.4189853072166443,-9.75397777557373,-0.002130528911948204,-0.003195793367922306,-0.003195793367922306,6.537959
-0.33758243918418884,0.4405331015586853,-9.718064308166504,-0.004261057823896408,-0.003195793367922306,-0.002130528911948204,6.542954
-0.35434186458587646,0.44532153010368347,-9.694122314453125,-0.002130528911948204,-0.001065264455974102,-0.001065264455974102,6.547963
-0.3758896589279175,0.4429273009300232,-9.682151794433594,0.001065264455974102,-0.002130528911948204,-0.001065264455974102,6.552961
-0.37828385829925537,0.44532153010368347,-9.715670585632324,-0.001065264455974102,-0.004261057823896408,-0.002130528911948204,6.557958
-0.3998316824436188,0.42856210470199585,-9.734824180603027,0.0,-0.002130528911948204,-0.003195793367922306,6.562957
-0.3734954595565796,0.4213795065879822,-9.720458984375,0.001065264455974102,-0.002130528911948204,-0.002130528911948204,6.567956
-0.363918662071228,0.4189853072166443,-9.6989107131958,-0.002130528911948204,-0.003195793367922306,-0.001065264455974102,6.572961
-0.37828385829925537,0.42377370595932007,-9.68933391571045,-0.002130528911948204,-0.004261057823896408,-0.002130528911948204,6.577957
-0.38546648621559143,0.42616790533065796,-9.710882186889648,0.001065264455974102,-0.003195793367922306,-0.001065264455974102,6.582967
-0.3926490843296051,0.40940847992897034,-9.737217903137207,0.0,-0.001065264455974102,-0.002130528911948204,6.587963
-0.38307225704193115,0.4429273009300232,-9.696516990661621,-0.003195793367922306,0.0,-0.003195793367922306,6.592959
-0.3495534360408783,0.4668693244457245,-9.679757118225098,-0.002130528911948204,-0.003195793367922306,0.0,6.597959
-0.35673606395721436,0.45250412821769714,-9.696516990661621,-0.003195793367922306,-0.002130528911948204,0.0,6.602964
-0.3495534360408783,0.4620809257030487,-9.703699111938477,-0.002130528911948204,-0.001065264455974102,-0.003195793367922306,6.607963
-0.3423708379268646,0.47165772318840027,-9.730035781860352,0.001065264455974102,-0.004261057823896408,-0.004261057823896408,6.612963
-0.3423708379268646,0.4620809257030487,-9.727641105651855,-0.002130528911948204,-0.004261057823896408,-0.003195793367922306,6.617969
-0.36152446269989014,0.48602294921875,-9.696516990661621,-0.004261057823896408,-0.004261057823896408,-0.002130528911948204,6.622964
-0.3711012601852417,0.4884171485900879,-9.6989107131958,0.001065264455974102,-0.003195793367922306,-0.003195793367922306,6.627961
