ax,ay,az,gx,gy,gz,timestamp
-0.6584054827690125,9.428366661071777,1.0582371950149536,0.008522115647792816,-0.04367583990097046,0.03834952041506767,1.909802
-0.6200982332229614,9.576807022094727,1.0965443849563599,0.004261057823896408,-0.04261057823896408,0.041545312851667404,1.914803
-0.5506663918495178,9.68933391571045,1.0821791887283325,-0.003195793367922306,-0.01810949482023716,0.04048004746437073,1.919803
-0.4812345504760742,9.732429504394531,1.0414776802062988,-0.007456851191818714,0.013848437927663326,0.03834952041506767,1.924803
-0.4620809257030487,9.780313491821289,0.9888052940368652,-0.011717909015715122,0.037284255027770996,0.029827404767274857,1.929804
-0.4165911078453064,9.813833236694336,0.9433154463768005,-0.01065264455974102,0.05432848632335663,0.019174760207533836,1.934821
-0.40222588181495667,9.806650161743164,0.8403648138046265,-0.01065264455974102,0.0649811327457428,0.003195793367922306,1.939813
-0.3998316824436188,9.818621635437012,0.768538773059845,-0.009587380103766918,0.0649811327457428,-0.014913702383637428,1.94481
-0.4213795065879822,9.876082420349121,0.6967126727104187,-0.00532632227987051,0.055393751710653305,-0.02876213937997818,1.949809
-0.49799394607543945,9.952696800231934,0.7230489253997803,-0.006391586735844612,0.03834952041506767,-0.04580637067556381,1.954808
-0.5937620401382446,9.93354320526123,0.6991068720817566,-0.00532632227987051,0.020240023732185364,-0.07030745595693588,1.959807
-0.6751648783683777,9.84495735168457,0.7182605266571045,-0.008522115647792816,0.002130528911948204,-0.08735167980194092,1.964808
-0.7445967197418213,9.720458984375,0.7661445140838623,-0.011717909015715122,-0.014913702383637428,-0.092678003013134,1.969811
-0.7972691655158997,9.622296333312988,0.8307880163192749,-0.009587380103766918,-0.02876213937997818,-0.08522115647792816,1.974814
-0.8068459630012512,9.567230224609375,0.9002198576927185,0.003195793367922306,-0.03834952041506767,-0.06817692518234253,1.97981
-0.8164227604866028,9.543288230895996,0.9241618514060974,0.015978965908288956,-0.03941478207707405,-0.04793689772486687,1.984824
-0.7948749661445618,9.509769439697266,0.9361328482627869,0.020240023732185364,-0.029827404767274857,-0.020240023732185364,1.989813
-0.7972691655158997,9.593565940856934,0.933738648891449,0.009587380103766918,-0.01810949482023716,0.008522115647792816,1.994811
-0.7781155705451965,9.713275909423828,0.8858546018600464,0.004261057823896408,-0.001065264455974102,0.024501081556081772,1.999814
-0.7637503147125244,9.770736694335938,0.8619126081466675,0.0,0.013848437927663326,0.029827404767274857,2.004821
-0.7374141216278076,9.832986831665039,0.8259995579719543,-0.013848437927663326,0.026631610468029976,0.030892668291926384,2.009817
-0.7134721279144287,9.86650562286377,0.8307880163192749,-0.020240023732185364,0.029827404767274857,0.02556634694337845,2.014819
-0.7015010714530945,9.888052940368652,0.849941611289978,-0.020240023732185364,0.026631610468029976,0.012783173471689224,2.01982
-0.706289529800415,9.950302124023438,0.8930372595787048,-0.007456851191818714,0.017044231295585632,-0.002130528911948204,2.024814
-0.7206547260284424,9.883264541625977,0.9074024558067322,0.00532632227987051,0.008522115647792816,-0.01810949482023716,2.029815
-0.7661445140838623,9.785101890563965,0.8906430602073669,0.011717909015715122,0.003195793367922306,-0.030892668291926384,2.034812
-0.7972691655158997,9.651026725769043,0.9097966551780701,0.019174760207533836,0.001065264455974102,-0.03621898964047432,2.03983
-0.7924807667732239,9.500192642211914,0.9145850539207458,0.024501081556081772,0.003195793367922306,-0.029827404767274857,2.044813
-0.790086567401886,9.48343276977539,0.9265560507774353,0.02876213937997818,0.01065264455974102,-0.009587380103766918,2.049821
-0.7829039692878723,9.550470352172852,0.8978256583213806,0.02876213937997818,0.02130528911948204,0.011717909015715122,2.05482
-0.7541735172271729,9.591172218322754,0.8643068075180054,0.024501081556081772,0.030892668291926384,0.02876213937997818,2.059825
-0.7733271718025208,9.600749015808105,0.8355764150619507,0.024501081556081772,0.037284255027770996,0.03941478207707405,2.064815
-0.7230489253997803,9.591172218322754,0.7709329724311829,0.027696875855326653,0.03941478207707405,0.049002163112163544,2.069815
-0.6847416758537292,9.583989143371582,0.7015010714530945,0.02556634694337845,0.04261057823896408,0.06178533658385277,2.07482
-0.6057330369949341,9.583989143371582,0.5985504388809204,0.017044231295585632,0.04048004746437073,0.07243797928094864,2.079835
-0.5650315880775452,9.648633003234863,0.6177040338516235,0.002130528911948204,0.03834952041506767,0.07456851005554199,2.084828
-0.5027823448181152,9.696516990661621,0.5770025849342346,-0.011717909015715122,0.03302319720387459,0.07137271761894226,2.08982
-0.43335050344467163,9.68694019317627,0.5937620401382446,-0.024501081556081772,0.02556634694337845,0.06924218684434891,2.094818
-0.3926490843296051,9.708487510681152,0.5817909836769104,-0.04261057823896408,0.01065264455974102,0.06072007119655609,2.099817
-0.3687070608139038,9.737217903137207,0.6033388376235962,-0.05645901337265968,-0.01065264455974102,0.05006742849946022,2.104822
-0.3280056416988373,9.806650161743164,0.6943184733390808,-0.05965480953454971,-0.03195793181657791,0.03621898964047432,2.109822
-0.3256114423274994,9.828198432922363,0.790086567401886,-0.055393751710653305,-0.0511326938867569,0.017044231295585632,2.114835
-0.2944868206977844,9.794678688049316,0.8858546018600464,-0.049002163112163544,-0.07030745595693588,-0.004261057823896408,2.119825
-0.33279404044151306,9.765948295593262,0.9600749015808105,-0.04048004746437073,-0.0788295641541481,-0.027696875855326653,2.124822
-0.3687070608139038,9.775525093078613,1.0582371950149536,-0.02876213937997818,-0.07776430249214172,-0.04687163606286049,2.12982
-0.4381389021873474,9.780313491821289,1.115697979927063,-0.017044231295585632,-0.07030745595693588,-0.06285060197114944,2.13482
-0.49799394607543945,9.720458984375,1.139639973640442,-0.003195793367922306,-0.055393751710653305,-0.07776430249214172,2.139826
-0.5602431893348694,9.653421401977539,1.1755530834197998,0.011717909015715122,-0.03302319720387459,-0.08522115647792816,2.144821
-0.6057330369949341,9.648633003234863,1.1803414821624756,0.023435818031430244,-0.004261057823896408,-0.08202536404132843,2.149829
-0.6607996821403503,9.782708168029785,1.1348515748977661,0.026631610468029976,0.02876213937997818,-0.0788295641541481,2.154828
-0.7398083209991455,9.840168952941895,1.094150185585022,0.024501081556081772,0.06072007119655609,-0.08202536404132843,2.159826
-0.8164227604866028,9.761159896850586,1.0127472877502441,0.022370552644133568,0.08522115647792816,-0.08096009492874146,2.164823
-0.8690952062606812,9.703699111938477,0.9169792532920837,0.012783173471689224,0.1022653877735138,-0.07030745595693588,2.169823
-0.8834604024887085,9.655815124511719,0.8236053586006165,0.007456851191818714,0.10865697264671326,-0.05432848632335663,2.174828
-0.8906430602073669,9.660603523254395,0.7422025203704834,0.013848437927663326,0.10120011866092682,-0.037284255027770996,2.17983
-0.8690952062606812,9.708487510681152,0.6536170840263367,0.012783173471689224,0.08628641813993454,-0.01810949482023716,2.184834
-0.8451532125473022,9.780313491821289,0.6177040338516235,0.012783173471689224,0.06178533658385277,0.001065264455974102,2.189828
-0.7972691655158997,9.799467086791992,0.6129156351089478,0.01810949482023716,0.03515372797846794,0.01065264455974102,2.194825
-0.7230489253997803,9.792284965515137,0.6224924325942993,0.024501081556081772,0.00532632227987051,0.017044231295585632,2.199825
-0.6991068720817566,9.797073364257812,0.6703764796257019,0.030892668291926384,-0.017044231295585632,0.02130528911948204,2.204831
-0.6751648783683777,9.765948295593262,0.6799532771110535,0.030892668291926384,-0.03195793181657791,0.020240023732185364,2.209831
-0.6320692300796509,9.75637149810791,0.7469909191131592,0.022370552644133568,-0.03621898964047432,0.01810949482023716,2.214831
-0.5937620401382446,9.765948295593262,0.7876923680305481,0.008522115647792816,-0.03515372797846794,0.015978965908288956,2.219834
-0.6129156351089478,9.77791976928711,0.811634361743927,0.003195793367922306,-0.03302319720387459,0.008522115647792816,2.224829
-0.608127236366272,9.715670585632324,0.8619126081466675,0.012783173471689224,-0.029827404767274857,-0.008522115647792816,2.229828
-0.629675030708313,9.600749015808105,0.8930372595787048,0.014913702383637428,-0.022370552644133568,-0.024501081556081772,2.234828
-0.6967126727104187,9.524134635925293,0.9074024558067322,0.009587380103766918,-0.006391586735844612,-0.027696875855326653,2.239833
-0.689530074596405,9.466673851013184,0.8858546018600464,0.001065264455974102,0.007456851191818714,-0.02556634694337845,2.24483
-0.6751648783683777,9.457097053527832,0.8858546018600464,-0.003195793367922306,0.020240023732185364,-0.019174760207533836,2.249838
-0.7158663272857666,9.452308654785156,0.8403648138046265,-0.00532632227987051,0.030892668291926384,-0.00532632227987051,2.254836
-0.7158663272857666,9.512163162231445,0.8164227604866028,-0.012783173471689224,0.03515372797846794,0.006391586735844612,2.259833
-0.6967126727104187,9.619902610778809,0.790086567401886,-0.012783173471689224,0.030892668291926384,0.013848437927663326,2.264831
-0.6943184733390808,9.701305389404297,0.8020575642585754,-0.009587380103766918,0.022370552644133568,0.014913702383637428,2.269832
-0.6847416758537292,9.713275909423828,0.790086567401886,-0.009587380103766918,0.013848437927663326,0.007456851191818714,2.274836
-0.6631938815116882,9.708487510681152,0.8068459630012512,-0.01065264455974102,0.006391586735844612,0.001065264455974102,2.279833
-0.6488286852836609,9.727641105651855,0.828393816947937,-0.011717909015715122,0.0,0.003195793367922306,2.284842
-0.6248866319656372,9.758766174316406,0.8571242094039917,-0.009587380103766918,-0.004261057823896408,0.007456851191818714,2.289837
-0.5770025849342346,9.816226959228516,0.828393816947937,-0.00532632227987051,-0.007456851191818714,0.00532632227987051,2.294833
-0.5722141861915588,9.797073364257812,0.8212111592292786,0.006391586735844612,-0.008522115647792816,0.001065264455974102,2.299835
-0.5219359993934631,9.787496566772461,0.811634361743927,0.017044231295585632,-0.00532632227987051,-0.001065264455974102,2.304863
-0.5219359993934631,9.813833236694336,0.7637503147125244,0.012783173471689224,0.001065264455974102,-0.003195793367922306,2.309838
-0.5674257874488831,9.871294021606445,0.7398083209991455,0.0,0.009587380103766918,-0.01065264455974102,2.314841
-0.608127236366272,9.885659217834473,0.6967126727104187,-0.015978965908288956,0.011717909015715122,-0.019174760207533836,2.319843
-0.6392518281936646,9.816226959228516,0.6919242739677429,-0.026631610468029976,0.009587380103766918,-0.026631610468029976,2.324838
-0.6703764796257019,9.751583099365234,0.7326257228851318,-0.03834952041506767,0.002130528911948204,-0.027696875855326653,2.329838
-0.6919242739677429,9.75637149810791,0.7876923680305481,-0.04580637067556381,-0.013848437927663326,-0.022370552644133568,2.334836
-0.7254431247711182,9.75397777557373,0.8355764150619507,-0.029827404767274857,-0.03195793181657791,-0.015978965908288956,2.339842
-0.7206547260284424,9.751583099365234,0.8667010068893433,-0.008522115647792816,-0.05006742849946022,-0.012783173471689224,2.344838
-0.7086837291717529,9.718064308166504,0.933738648891449,0.004261057823896408,-0.058589544147253036,-0.007456851191818714,2.349846
-0.7134721279144287,9.742006301879883,1.0199298858642578,0.008522115647792816,-0.058589544147253036,0.0,2.354844
-0.6631938815116882,9.670180320739746,1.0414776802062988,0.009587380103766918,-0.04580637067556381,0.00532632227987051,2.359841
-0.6057330369949341,9.648633003234863,1.05105459690094,0.014913702383637428,-0.024501081556081772,0.01065264455974102,2.364839
-0.5506663918495178,9.682151794433594,1.0055646896362305,0.013848437927663326,0.0,0.012783173471689224,2.369839
-0.5099649429321289,9.758766174316406,0.9648633003234863,0.019174760207533836,0.029827404767274857,0.009587380103766918,2.374845
-0.4668693244457245,9.806650161743164,0.8930372595787048,0.01810949482023716,0.05752427875995636,0.002130528911948204,2.379841
-0.4381389021873474,9.801861763000488,0.7805097699165344,0.01810949482023716,0.07989483326673508,-0.009587380103766918,2.38485
-0.40940847992897034,9.785101890563965,0.6871358752250671,0.024501081556081772,0.10013485699892044,-0.020240023732185364,2.389845
-0.37828385829925537,9.75397777557373,0.5578489899635315,0.034088462591171265,0.11291802674531937,-0.030892668291926384,2.394841
-0.3495534360408783,9.768342971801758,0.42856210470199585,0.037284255027770996,0.12144014239311218,-0.03834952041506767,2.399841
-0.3256114423274994,9.787496566772461,0.33039984107017517,0.037284255027770996,0.1257012039422989,-0.04580637067556381,2.404846
-0.27054479718208313,9.86650562286377,0.28730419278144836,0.03834952041506767,0.12463593482971191,-0.05006742849946022,2.409844
-0.2585737705230713,9.967061996459961,0.2106897532939911,0.041545312851667404,0.11824434995651245,-0.05965480953454971,2.414848
-0.26096799969673157,10.062829971313477,0.16519992053508759,0.04261057823896408,0.11078750342130661,-0.07456851005554199,2.41985
-0.27054479718208313,10.15141487121582,0.1412578970193863,0.04687163606286049,0.1022653877735138,-0.09587379544973373,2.424846
-0.33518823981285095,10.225635528564453,0.08140286058187485,0.0511326938867569,0.09374327212572098,-0.12889699637889862,2.429844
-0.33997663855552673,10.14902114868164,0.0454898327589035,0.044741105288267136,0.08735167980194092,-0.1619201898574829,2.434844
-0.395043283700943,10.17296314239502,-0.009576806798577309,0.04261057823896408,0.07776430249214172,-0.17789915204048157,2.43985
-0.5219359993934631,10.259154319763184,-0.019153613597154617,0.04793689772486687,0.06285060197114944,-0.20559602975845337,2.444845
-0.667982280254364,10.228029251098633,0.0071826050989329815,0.052197955548763275,0.04793689772486687,-0.23755396902561188,2.449853
-0.811634361743927,10.204087257385254,0.043095629662275314,0.055393751710653305,0.04048004746437073,-0.2652508318424225,2.454852
-0.9026140570640564,10.11550235748291,0.0933738648891449,0.058589544147253036,0.03941478207707405,-0.28016453981399536,2.459849
-0.9744400978088379,10.053253173828125,0.1388636976480484,0.06285060197114944,0.049002163112163544,-0.2822950780391693,2.464847
-1.036689281463623,10.08198356628418,0.16759411990642548,0.07137271761894226,0.07030745595693588,-0.2780340015888214,2.469847
-1.1013327836990356,10.129867553710938,0.16519992053508759,0.07456851005554199,0.1022653877735138,-0.2695119082927704,2.474852
-1.1348515748977661,10.146626472473145,0.09816227108240128,0.07989483326673508,0.14061491191387177,-0.26631611585617065,2.479851
-1.1635819673538208,10.156203269958496,0.040701430290937424,0.09374327212572098,0.18322548270225525,-0.2556634545326233,2.484858
-1.1540051698684692,10.14902114868164,-0.08858546614646912,0.09374327212572098,0.22370553016662598,-0.23542344570159912,2.489853
-1.0989385843276978,10.105925559997559,-0.21308395266532898,0.09054747968912125,0.2556634545326233,-0.21624867618083954,2.494849
-1.036689281463623,10.079588890075684,-0.3256114423274994,0.10013485699892044,0.2748382091522217,-0.2034655064344406,2.49985
-0.993593692779541,10.0580415725708,-0.47165772318840027,0.16937704384326935,0.28016453981399536,-0.19281286001205444,2.504854
-0.9169792532920837,10.074800491333008,-0.6272808313369751,0.1992044448852539,0.27590349316596985,-0.17363810539245605,2.509854
-0.9169792532920837,10.180145263671875,-0.8140285611152649,0.16405072808265686,0.27057716250419617,-0.1438107043504715,2.514858
-0.8619126081466675,10.160991668701172,-0.9792284965515137,0.1342233121395111,0.260989785194397,-0.14168016612529755,2.519858
-0.790086567401886,9.986215591430664,-1.0821791887283325,0.09587379544973373,0.2460760772228241,-0.14700649678707123,2.524854
-0.7422025203704834,9.880870819091797,-1.1755530834197998,0.03515372797846794,0.22583605349063873,-0.13528858125209808,2.529852
-0.6823474764823914,9.763554573059082,-1.237802267074585,-0.049002163112163544,0.1896170675754547,-0.12144014239311218,2.534853
-0.5937620401382446,9.732429504394531,-1.2425906658172607,-0.11185276508331299,0.13209278881549835,-0.11504855751991272,2.539858
-0.5626373887062073,9.746794700622559,-1.137245774269104,-0.12463593482971191,0.0511326938867569,-0.1203748807311058,2.544855
-0.5602431893348694,9.708487510681152,-1.0342950820922852,-0.12783172726631165,-0.04261057823896408,-0.13635385036468506,2.549862
-0.646434485912323,9.624691009521484,-0.9050082564353943,-0.15020228922367096,-0.13741910457611084,-0.15446333587169647,2.554861
-0.7469909191131592,9.47146224975586,-0.7350199222564697,-0.17789915204048157,-0.22370553016662598,-0.17470335960388184,2.559857
-0.8379706144332886,9.277531623840332,-0.5410895943641663,-0.2045307755470276,-0.29827404022216797,-0.185356006026268,2.564855
-0.9193734526634216,9.133879661560059,-0.31842881441116333,-0.23435817658901215,-0.3568635880947113,-0.18216021358966827,2.569857
-1.0462661981582642,9.05487060546875,-0.08140286058187485,-0.25246766209602356,-0.3952130973339081,-0.1672465205192566,2.574861
-1.0845733880996704,9.093177795410156,0.10773907601833344,-0.2641855776309967,-0.41012680530548096,-0.1395496428012848,2.579862
-1.0749965906143188,9.289502143859863,0.31842881441116333,-0.27590349316596985,-0.40053942799568176,-0.09800432622432709,2.584866
-1.0654197931289673,9.208099365234375,0.5434837937355042,-0.3163835406303406,-0.370712012052536,-0.06285060197114944,2.589861
-0.9840168952941895,9.095572471618652,0.5746083855628967,-0.3398193418979645,-0.33236250281333923,-0.030892668291926384,2.594857
-0.9241618514060974,9.102754592895508,0.608127236366272,-0.28549087047576904,-0.28122982382774353,0.01065264455974102,2.599859
-0.8140285611152649,9.08838939666748,0.586579442024231,-0.2695119082927704,-0.2183792144060135,0.052197955548763275,2.604862
-0.730231523513794,9.299078941345215,0.4668693244457245,-0.29933929443359375,-0.148071750998497,0.09161274135112762,2.609861
-0.6823474764823914,9.586383819580078,0.27054479718208313,-0.32277512550354004,-0.08628641813993454,0.11504855751991272,2.614868
-0.608127236366272,9.694122314453125,0.1388636976480484,-0.3195793330669403,-0.04793689772486687,0.11185276508331299,2.619866
-0.5578489899635315,9.792284965515137,0.023942016065120697,-0.3206445872783661,-0.03195793181657791,0.092678003013134,2.624862
-0.5746083855628967,10.007762908935547,-0.023942016065120697,-0.32170987129211426,-0.04261057823896408,0.055393751710653305,2.629864
-0.7326257228851318,10.29746150970459,-0.026336219161748886,-0.28975191712379456,-0.07243797928094864,-0.012783173471689224,2.634861
-0.9433154463768005,10.57040023803711,0.043095629662275314,-0.2460760772228241,-0.11504855751991272,-0.10333064943552017,2.639867
-1.292868971824646,10.613495826721191,0.12928688526153564,-0.21944446861743927,-0.15020228922367096,-0.19813919067382812,2.644862
-1.6208745241165161,10.292673110961914,0.2513911724090576,-0.20133498311042786,-0.17044231295585632,-0.2886866629123688,2.64987
-1.9081788063049316,9.828198432922363,0.3495534360408783,-0.1949433833360672,-0.1672465205192566,-0.34514567255973816,2.654868
-2.2194249629974365,9.500192642211914,0.4357447028160095,-0.21411815285682678,-0.13741910457611084,-0.36005938053131104,2.659866
-2.516305923461914,9.157821655273438,0.4620809257030487,-0.25672873854637146,-0.08735167980194092,-0.3398193418979645,2.664863
-2.717418909072876,8.846575736999512,0.42856210470199585,-0.3163835406303406,-0.020240023732185364,-0.28016453981399536,2.669864
-2.849100112915039,8.655038833618164,0.33039984107017517,-0.39201730489730835,0.04793689772486687,-0.185356006026268,2.674868
-2.892195701599121,8.523358345031738,0.19153612852096558,-0.5038700699806213,0.10865697264671326,-0.05752427875995636,2.679867
-2.8658595085144043,8.422801971435547,0.08379705995321274,-0.629571259021759,0.1395496428012848,0.09587379544973373,2.684875
-2.693476915359497,8.480262756347656,0.038307227194309235,-0.7531419396400452,0.11930961906909943,0.26205503940582275,2.689869
-2.4588451385498047,8.83939266204834,0.1388636976480484,-0.8223841190338135,0.034088462591171265,0.4229099750518799,2.694867
-2.164358377456665,9.402029991149902,0.35673606395721436,-0.807470440864563,-0.11185276508331299,0.5581985712051392,2.699867
-1.766920804977417,9.959878921508789,0.751779317855835,-0.7233145236968994,-0.2886866629123688,0.6530070900917053,2.704872
-1.3287819623947144,10.520122528076172,1.235408067703247,-0.6306365132331848,-0.4676510691642761,0.6988134384155273,2.70987
-0.8690952062606812,10.979808807373047,1.7334020137786865,-0.5390238165855408,-0.6167880892753601,0.69561767578125,2.714876
-0.4836287498474121,11.30063247680664,2.2840683460235596,-0.42823630571365356,-0.7137271761894226,0.6519418358802795,2.719877
-0.1628057211637497,11.537657737731934,2.8586769104003906,-0.3344930410385132,-0.7456851005554199,0.5688512325286865,2.724871
0.043095629662275314,11.772290229797363,3.3279404640197754,-0.24181503057479858,-0.7094660997390747,0.46232476830482483,2.729869
0.14365209639072418,11.803414344787598,3.6367924213409424,-0.11717908829450607,-0.6061354875564575,0.32703617215156555,2.734869
0.1628057211637497,11.662156105041504,3.885789394378662,-0.04048004746437073,-0.4410194754600525,0.17896442115306854,2.739874
0.15083470940589905,11.520898818969727,4.048594951629639,-0.004261057823896408,-0.23329290747642517,0.034088462591171265,2.74487
0.004788403399288654,11.434707641601562,4.065354347229004,0.04048004746437073,-0.007456851191818714,-0.1022653877735138,2.749878
-0.24660277366638184,11.298237800598145,3.9408559799194336,0.12783172726631165,0.2173139452934265,-0.22903184592723846,2.754876
-0.48602294921875,10.946290016174316,3.6559460163116455,0.20026971399784088,0.4218447208404541,-0.33129724860191345,2.759873
-0.6584054827690125,10.560823440551758,3.2824504375457764,0.2545982003211975,0.5986785888671875,-0.3898867666721344,2.764872
-0.7015010714530945,10.170568466186523,2.8562827110290527,0.2918824553489685,0.7424892783164978,-0.4037352204322815,2.769872
-0.7422025203704834,9.947908401489258,2.4181437492370605,0.35579830408096313,0.8436894416809082,-0.37284255027770996,2.774877
-0.7876923680305481,9.837775230407715,1.9393033981323242,0.42077943682670593,0.9097357988357544,-0.3291667103767395,2.779884
-0.9074024558067322,9.78989028930664,1.3910311460494995,0.4303668141365051,0.9416937828063965,-0.2929477095603943,2.784884
-0.950498104095459,9.57441234588623,0.8523358106613159,0.41545313596725464,0.9374327063560486,-0.260989785194397,2.789877
-1.015141487121582,9.512163162231445,0.3758896589279175,0.3845604658126831,0.890561044216156,-0.20985709130764008,2.794874
-1.1444283723831177,9.552865028381348,0.011971008032560349,0.31744879484176636,0.798948347568512,-0.15446333587169647,2.799874
-1.1803414821624756,9.619902610778809,-0.2106897532939911,0.25779399275779724,0.6721818447113037,-0.1022653877735138,2.804881
-1.2090718746185303,9.670180320739746,-0.272938996553421,0.19707392156124115,0.5102616548538208,-0.04687163606286049,2.80988
-1.2617442607879639,9.636661529541016,-0.2944868206977844,0.1757686287164688,0.32597091794013977,-0.004261057823896408,2.814882
-1.1540051698684692,9.509769439697266,-0.1843535304069519,0.18748654425144196,0.13848437368869781,0.03195793181657791,2.819883
-1.0199298858642578,9.409213066101074,0.07900865375995636,0.19387812912464142,-0.03515372797846794,0.07137271761894226,2.824879
-0.8427590131759644,9.308655738830566,0.44771572947502136,0.22583605349063873,-0.17044231295585632,0.10120011866092682,2.829877
-0.6799532771110535,9.299078941345215,0.8978256583213806,0.25779399275779724,-0.2556634545326233,0.11078750342130661,2.834877
-0.5099649429321289,9.301473617553711,1.259350061416626,0.29933929443359375,-0.28122982382774353,0.10439591109752655,2.839883
-0.42616790533065796,9.349357604980469,1.5179238319396973,0.3387540876865387,-0.24288028478622437,0.09587379544973373,2.844879
-0.4189853072166443,9.315838813781738,1.6496049165725708,0.34088462591171265,-0.15233281254768372,0.07137271761894226,2.849887
-0.3998316824436188,9.23443603515625,1.6639702320098877,0.37390780448913574,-0.015978965908288956,0.034088462591171265,2.854885
-0.37828385829925537,9.004592895507812,1.53707754611969,0.3526025116443634,0.14061491191387177,0.009587380103766918,2.859881
-0.33997663855552673,8.722076416015625,1.1492167711257935,0.2972087860107422,0.29827404022216797,0.014913702383637428,2.86488
-0.35434186458587646,8.592789649963379,0.608127236366272,0.25779399275779724,0.4303668141365051,0.05006742849946022,2.869882
-0.272938996553421,8.540117263793945,-0.004788403399288654,0.16937704384326935,0.509196400642395,0.10333064943552017,2.874885
-0.10055647045373917,8.678980827331543,-0.45489832758903503,0.08735167980194092,0.521979570388794,0.16085493564605713,2.879884
-0.08379705995321274,9.165003776550293,-0.7541735172271729,0.009587380103766918,0.46125948429107666,0.20666129887104034,2.884889
-0.07900865375995636,9.734824180603027,-0.8690952062606812,-0.04261057823896408,0.31851404905319214,0.21518340706825256,2.889886
-0.0454898327589035,10.077195167541504,-0.8020575642585754,-0.019174760207533836,0.1257012039422989,0.1715075671672821,2.894882
-0.002394201699644327,10.165780067443848,-0.5578489899635315,0.023435818031430244,-0.09587379544973373,0.10013485699892044,2.899884
0.009576806798577309,10.08198356628418,-0.12928688526153564,0.06178533658385277,-0.3110572099685669,0.029827404767274857,2.904888
0.023942016065120697,9.921571731567383,0.44771572947502136,0.11185276508331299,-0.4878911077976227,-0.03195793181657791,2.909885
-0.004788403399288654,9.84256362915039,1.0342950820922852,0.15978966653347015,-0.6061354875564575,-0.07776430249214172,2.914894
-0.016759412363171577,9.78989028930664,1.5753847360610962,0.18855179846286774,-0.6604639291763306,-0.1161138191819191,2.91989
-0.0454898327589035,9.873687744140625,2.1356279850006104,0.20772656798362732,-0.6455502510070801,-0.14913702011108398,2.924887
-0.21308395266532898,10.022128105163574,2.5546131134033203,0.21518340706825256,-0.575242817401886,-0.1715075671672821,2.929887
-0.3447650372982025,10.036493301391602,2.82515811920166,0.2460760772228241,-0.47084689140319824,-0.1949433833360672,2.934887
-0.47165772318840027,9.943120002746582,2.9328970909118652,0.2918824553489685,-0.34621092677116394,-0.2173139452934265,2.939891
-0.6703764796257019,9.751583099365234,2.87064790725708,0.36005938053131104,-0.21518340706825256,-0.23116238415241241,2.944887
-0.8619126081466675,9.425971984863281,2.5450363159179688,0.4356931447982788,-0.08735167980194092,-0.24181503057479858,2.949895
-0.9481038451194763,8.825027465820312,2.097320795059204,0.5060005784034729,0.03621898964047432,-0.24181503057479858,2.954894
-1.0271124839782715,8.429984092712402,1.580173134803772,0.5400890707969666,0.15020228922367096,-0.21518340706825256,2.959895
-0.8978256583213806,8.166622161865234,1.113303780555725,0.5347627401351929,0.25353294610977173,-0.1757686287164688,2.96489
-0.828393816947937,8.286332130432129,0.6344634294509888,0.5251753926277161,0.3387540876865387,-0.1203748807311058,2.969889
-0.8355764150619507,8.53293514251709,0.1149216815829277,0.5070658922195435,0.39734363555908203,-0.08415588736534119,2.974894
-0.7757213711738586,8.652645111083984,-0.2753331959247589,0.4538026452064514,0.4261057674884796,-0.09054747968912125,2.979891
-0.7829039692878723,8.71489429473877,-0.6033388376235962,0.3515372574329376,0.4271710216999054,-0.1203748807311058,2.9849
-0.871489405632019,8.734047889709473,-0.7781155705451965,0.2695119082927704,0.41012680530548096,-0.15659387409687042,2.989894
-0.9097966551780701,8.640673637390137,-0.8930372595787048,0.17363810539245605,0.3717772960662842,-0.18642127513885498,2.994892
-0.9911994934082031,8.576030731201172,-0.9217676520347595,0.03941478207707405,0.3163835406303406,-0.18748654425144196,2.999891
-1.094150185585022,8.573636054992676,-0.8451532125473022,-0.08202536404132843,0.23116238415241241,-0.15446333587169647,3.004896
-1.115697979927063,8.652645111083984,-0.6416460275650024,-0.1768338978290558,0.1161138191819191,-0.10120011866092682,3.009894
-1.1444283723831177,8.884882926940918,-0.3663128614425659,-0.24501082301139832,-0.03302319720387459,-0.026631610468029976,3.014901
-1.192312479019165,9.093177795410156,0.016759412363171577,-0.2269013226032257,-0.19813919067382812,0.04261057823896408,3.0199
-1.115697979927063,9.169792175292969,0.4165911078453064,-0.1757686287164688,-0.3579288423061371,0.09480853378772736,3.024896
-1.0414776802062988,9.299078941345215,0.8978256583213806,-0.14487595856189728,-0.4910869002342224,0.15020228922367096,3.029894
-0.9313444495201111,9.581595420837402,1.3120225667953491,-0.13209278881549835,-0.5890912413597107,0.2034655064344406,3.034894
-0.8307880163192749,9.86650562286377,1.6950948238372803,-0.11717908829450607,-0.6434197425842285,0.23116238415241241,3.0399
-0.7350199222564697,10.04846477508545,2.1356279850006104,-0.08415588736534119,-0.6455502510070801,0.21411815285682678,3.044895
-0.6153098344802856,10.103530883789062,2.4875755310058594,-0.04048004746437073,-0.6018744111061096,0.16298545897006989,3.049903
-0.5171475410461426,10.127472877502441,2.7557260990142822,0.024501081556081772,-0.5166532397270203,0.08309062570333481,3.054902
-0.5123591423034668,10.249577522277832,2.9975404739379883,0.10120011866092682,-0.3802993893623352,-0.014913702383637428,3.059898
-0.6344634294509888,10.369287490844727,3.0765492916107178,0.148071750998497,-0.20985709130764008,-0.12357067316770554,3.064897
-0.7182605266571045,10.218452453613281,3.0166940689086914,0.18002969026565552,-0.013848437927663326,-0.2407497614622116,3.069897
-0.9241618514060974,9.93354320526123,2.779668092727661,0.20240023732185364,0.18855179846286774,-0.34088462591171265,3.074902
-1.256955862045288,9.694122314453125,2.449268341064453,0.222640261054039,0.3760383427143097,-0.399474173784256,3.079901
-1.455674648284912,9.157821655273438,1.965639591217041,0.250337153673172,0.5326322317123413,-0.4218447208404541,3.084909
-1.5394717454910278,8.588001251220703,1.3982137441635132,0.287621408700943,0.6530070900917053,-0.4026699662208557,3.089903
-1.5873557329177856,8.274360656738281,0.7541735172271729,0.3153182566165924,0.7318366765975952,-0.3302319645881653,3.094899
-1.6663644313812256,8.200140953063965,0.035913024097681046,0.3206445872783661,0.7797735333442688,-0.22370553016662598,3.0999
-1.6184803247451782,8.157045364379883,-0.7206547260284424,0.250337153673172,0.7861651182174683,-0.11504855751991272,3.104903
-1.5394717454910278,8.183381080627441,-1.460463047027588,0.13528858125209808,0.754207193851471,-0.01065264455974102,3.109904
-1.4413094520568848,8.255207061767578,-1.98958158493042,-0.00532632227987051,0.6743123531341553,0.07989483326673508,3.11491
-1.5131354331970215,8.504204750061035,-2.403778553009033,-0.1949433833360672,0.5432848334312439,0.16405072808265686,3.119908
-1.656787633895874,8.702922821044922,-2.6360161304473877,-0.36858150362968445,0.35579830408096313,0.22370553016662598,3.124905
-1.7405846118927002,8.796297073364258,-2.6671407222747803,-0.48469531536102295,0.12357067316770554,0.2631203234195709,3.129902
-1.8794482946395874,8.779537200927734,-2.4396915435791016,-0.5699164867401123,-0.1203748807311058,0.28549087047576904,3.134902
-1.9919757843017578,8.71728801727295,-1.9752163887023926,-0.6540723443031311,-0.35579830408096313,0.30786141753196716,3.139908
-2.10210919380188,8.707711219787598,-1.278503656387329,-0.7392935156822205,-0.5518069863319397,0.34088462591171265,3.144904
-2.2361843585968018,9.390059471130371,-0.5267243981361389,-0.8309062719345093,-0.6945524215698242,0.37390780448913574,3.149911
-1.9800047874450684,9.531316757202148,0.29209262132644653,-0.9182579517364502,-0.7637946009635925,0.3653857111930847,3.154911
-1.6663644313812256,9.093177795410156,1.091755986213684,-1.0673949718475342,-0.7744472622871399,0.36005938053131104,3.159908
-1.4532804489135742,8.552088737487793,1.8052281141281128,-1.1046792268753052,-0.7360976934432983,0.41545313596725464,3.164905
-1.455674648284912,8.561665534973145,2.3511061668395996,-1.1249192953109741,-0.6775081753730774,0.5187837481498718,3.169906
-1.6400281190872192,9.138668060302734,2.7437551021575928,-1.0546118021011353,-0.5954828262329102,0.6093312501907349,3.174911
-1.599326729774475,9.588777542114258,3.2345664501190186,-0.9267800450325012,-0.48469531536102295,0.66685551404953,3.179909
-1.414973258972168,9.854534149169922,3.5027170181274414,-0.9246495366096497,-0.3664509654045105,0.7371630072593689,3.184916
-1.1683704853057861,10.02691650390625,3.5913026332855225,-0.8756473660469055,-0.25246766209602356,0.8042746186256409,3.18991
-0.706289529800415,10.079588890075684,3.6727054119110107,-0.7563377618789673,-0.1533980816602707,0.8479504585266113,3.194908
-0.24181437492370605,10.189722061157227,3.6343982219696045,-0.6189186573028564,-0.07669904083013535,0.8863000273704529,3.199909
0.26336219906806946,10.438719749450684,3.4787750244140625,-0.4506068527698517,-0.013848437927663326,0.910801112651825,3.204912
0.7565677165985107,10.699687004089355,3.19865345954895,-0.29933929443359375,0.04261057823896408,0.9086705446243286,3.209911
1.259350061416626,10.888829231262207,2.892195701599121,-0.21092236042022705,0.09480853378772736,0.8660599589347839,3.214917
1.7334020137786865,11.068394660949707,2.5929205417633057,-0.14061491191387177,0.13635385036468506,0.7840346097946167,3.219916
2.0805611610412598,11.4849853515625,2.3702597618103027,-0.06285060197114944,0.15659387409687042,0.658333420753479,3.224913
2.229001760482788,11.894393920898438,2.166752576828003,0.007456851191818714,0.1619201898574829,0.48576056957244873,3.229912
2.2409727573394775,12.035652160644531,1.9752163887023926,0.05965480953454971,0.15872439742088318,0.2727077007293701,3.234911
2.1284453868865967,11.860875129699707,1.745373010635376,0.09906959533691406,0.1438107043504715,0.027696875855326653,3.239917
1.9776105880737305,11.403582572937012,1.5490485429763794,0.14913702011108398,0.1203748807311058,-0.21624867618083954,3.244912
1.6974890232086182,10.951078414916992,1.4173674583435059,0.20026971399784088,0.09480853378772736,-0.4261057674884796,3.249919
1.256955862045288,10.484209060668945,1.2856862545013428,0.23542344570159912,0.07669904083013535,-0.5976133346557617,3.254919
0.8834604024887085,10.017339706420898,1.1899182796478271,0.23861923813819885,0.07137271761894226,-0.7211840152740479,3.259917
0.5506663918495178,9.612719535827637,1.1204863786697388,0.2087918221950531,0.07669904083013535,-0.7968177795410156,3.264914
0.16998831927776337,9.512163162231445,1.072602391242981,0.16511598229408264,0.08522115647792816,-0.836232602596283,3.269914
-0.29209262132644653,9.720458984375,1.0247182846069336,0.1257012039422989,0.08948221057653427,-0.8703210353851318,3.274918
-0.6105214357376099,9.624691009521484,1.0438719987869263,0.08202536404132843,0.0788295641541481,-0.9182579517364502,3.279916
-0.8164227604866028,9.121908187866211,1.0893617868423462,0.03302319720387459,0.05752427875995636,-0.9523463845252991,3.284925
-0.9552865028381348,8.544905662536621,1.1827356815338135,0.020240023732185364,0.02556634694337845,-0.9353021383285522,3.289919
-1.357512354850769,8.652645111083984,1.2761094570159912,0.004261057823896408,-0.022370552644133568,-0.8586031198501587,3.294916
-1.7166426181793213,8.815450668334961,1.3718775510787964,0.08735167980194092,-0.07456851005554199,-0.7829693555831909,3.299916
-1.9249382019042969,8.820239067077637,1.4460978507995605,0.18748654425144196,-0.10865697264671326,-0.72437983751297,3.304924
-2.183511972427368,8.779537200927734,1.314416766166687,0.19387812912464142,-0.11291802674531937,-0.6487460136413574,3.30992
-2.3774423599243164,8.592789649963379,1.0965443849563599,0.185356006026268,-0.07776430249214172,-0.5613943338394165,3.314928
-2.43011474609375,8.238448143005371,0.7948749661445618,0.11291802674531937,-0.026631610468029976,-0.4538026452064514,3.319925
-2.3942017555236816,8.08043098449707,0.45489832758903503,-0.003195793367922306,0.029827404767274857,-0.3238403797149658,3.324921
-2.4444799423217773,8.216899871826172,0.1628057211637497,-0.13741910457611084,0.05965480953454971,-0.1896170675754547,3.329919
-2.477998733520508,8.439560890197754,-0.0071826050989329815,-0.23542344570159912,0.049002163112163544,-0.07137271761894226,3.334919
-2.3774423599243164,8.547300338745117,-0.08140286058187485,-0.2918824553489685,-0.003195793367922306,0.01810949482023716,3.339926
-2.099714994430542,8.688557624816895,-0.038307227194309235,-0.31318774819374084,-0.08202536404132843,0.07989483326673508,3.34492
-1.8171991109848022,8.844181060791016,0.24660277366638184,-0.3291667103767395,-0.16618125140666962,0.12357067316770554,3.349929
-1.6352397203445435,9.14585018157959,0.5985504388809204,-0.34940671920776367,-0.2407497614622116,0.15872439742088318,3.354927
-1.501164436340332,9.476250648498535,1.0271124839782715,-0.32703617215156555,-0.29401299357414246,0.17363810539245605,3.359925
-1.3479355573654175,9.775525093078613,1.434126853942871,-0.3536677956581116,-0.3163835406303406,0.17789915204048157,3.364922
-1.3503297567367554,10.113107681274414,1.845929503440857,-0.3717772960662842,-0.30892667174339294,0.17470335960388184,3.369922
-1.5203180313110352,10.529699325561523,2.1787235736846924,-0.37284255027770996,-0.28442561626434326,0.1533980816602707,3.374927
-1.778891921043396,10.84094524383545,2.403778553009033,-0.40053942799568176,-0.24820661544799805,0.11717908829450607,3.379927
-1.9105730056762695,10.862493515014648,2.655169725418091,-0.3952130973339081,-0.21624867618083954,0.08522115647792816,3.384934
-1.9608511924743652,10.72602367401123,2.9089550971984863,-0.36325517296791077,-0.19600865244865417,0.06072007119655609,3.389927
-1.987187385559082,10.599130630493164,3.134010076522827,-0.2727077007293701,-0.1768338978290558,0.04048004746437073,3.394925
-2.0039467811584473,10.378864288330078,3.2632968425750732,-0.11398329585790634,-0.14594122767448425,0.03515372797846794,3.399925
-1.9273324012756348,9.928754806518555,3.205836057662964,0.02876213937997818,-0.08522115647792816,0.03515372797846794,3.404929
-1.7549498081207275,9.366117477416992,2.942473888397217,0.11930961906909943,0.024501081556081772,0.05326322093605995,3.409929
-1.5897499322891235,9.05487060546875,2.5977089405059814,0.11398329585790634,0.17470335960388184,0.10120011866092682,3.414938
-1.316810965538025,8.834604263305664,2.1930887699127197,0.003195793367922306,0.3344930410385132,0.16511598229408264,3.419933
-0.9648633003234863,8.760383605957031,1.6903064250946045,-0.1161138191819191,0.4687163531780243,0.2407497614622116,3.42493
-0.7086837291717529,8.904036521911621,1.2545616626739502,-0.17896442115306854,0.5411543250083923,0.3025350868701935,3.429928
-0.629675030708313,9.253589630126953,0.8882488012313843,-0.1949433833360672,0.5432848334312439,0.32597091794013977,3.434928
-0.42377370595932007,9.493009567260742,0.6488286852836609,-0.16831177473068237,0.48363006114959717,0.3153182566165924,3.439934
-0.35913026332855225,9.921571731567383,0.507570743560791,-0.1715075671672821,0.3760383427143097,0.29507824778556824,3.44493
-0.5817909836769104,10.285490036010742,0.40701428055763245,-0.17257283627986908,0.2460760772228241,0.25353294610977173,3.449936
-0.7541735172271729,10.165780067443848,0.3926490843296051,-0.17257283627986908,0.10865697264671326,0.18429075181484222,3.454936
-0.8571242094039917,9.852140426635742,0.44771572947502136,-0.22477079927921295,-0.020240023732185364,0.14913702011108398,3.459932
-0.9026140570640564,9.50498104095459,0.5770025849342346,-0.30466562509536743,-0.13635385036468506,0.16511598229408264,3.46493
-0.8188169598579407,9.150638580322266,0.8547300100326538,-0.36325517296791077,-0.24181503057479858,0.20240023732185364,3.469933
-0.7230489253997803,9.150638580322266,1.3742717504501343,-0.39201730489730835,-0.3344930410385132,0.25353294610977173,3.474936
-0.6991068720817566,9.50737476348877,1.9608511924743652,-0.3813646733760834,-0.407996267080307,0.3004045784473419,3.479933
-0.6847416758537292,9.718064308166504,2.470816135406494,-0.2748382091522217,-0.45273739099502563,0.29827404022216797,3.484942
-0.49320554733276367,9.636661529541016,2.911349296569824,-0.11291802674531937,-0.44741106033325195,0.258859246969223,3.489936
-0.45250412821769714,9.797073364257812,3.224989652633667,0.004261057823896408,-0.37390780448913574,0.22583605349063873,3.494933
-0.4357447028160095,9.840168952941895,3.2609026432037354,0.03621898964047432,-0.2364886999130249,0.18429075181484222,3.499935
-0.3687070608139038,9.619902610778809,3.1507694721221924,0.01065264455974102,-0.05645901337265968,0.1342233121395111,3.50494
-0.27054479718208313,9.461885452270508,2.9472622871398926,-0.04793689772486687,0.1438107043504715,0.08415588736534119,3.509937
-0.16759411990642548,9.442731857299805,2.5977089405059814,-0.1161138191819191,0.3206445872783661,0.037284255027770996,3.514946
-0.090979665517807,9.406818389892578,2.190694570541382,-0.12783172726631165,0.4442152678966522,-0.008522115647792816,3.519942
0.047884032130241394,9.344569206237793,1.7334020137786865,-0.11930961906909943,0.48576056957244873,-0.04261057823896408,3.524938
0.26096799969673157,9.41639518737793,1.37906014919281,-0.07563377171754837,0.4591289758682251,-0.06817692518234253,3.529938
0.42616790533065796,9.670180320739746,1.1300631761550903,0.007456851191818714,0.3749730885028839,-0.07669904083013535,3.534937
0.6607996821403503,9.885659217834473,0.9768342971801758,0.10120011866092682,0.2545982003211975,-0.07989483326673508,3.539942
0.8092401623725891,10.160991668701172,0.9313444495201111,0.15659387409687042,0.1257012039422989,-0.09054747968912125,3.544937
0.9552865028381348,10.24000072479248,0.9313444495201111,0.20133498311042786,0.001065264455974102,-0.1342233121395111,3.549945
1.048660397529602,10.407594680786133,1.015141487121582,0.2652508318424225,-0.09906959533691406,-0.2130528837442398,3.554944
0.9433154463768005,10.714052200317383,1.1563993692398071,0.2886866629123688,-0.16937704384326935,-0.3142530024051666,3.559941
0.7565677165985107,10.953473091125488,1.338358759880066,0.26631611585617065,-0.2034655064344406,-0.43888893723487854,3.56494
0.45250412821769714,11.109095573425293,1.6615760326385498,0.222640261054039,-0.20026971399784088,-0.5773733258247375,3.569939
-0.038307227194309235,11.255142211914062,1.987187385559082,0.16618125140666962,-0.17789915204048157,-0.7115966081619263,3.574944
-0.6057330369949341,11.216835021972656,2.2816741466522217,0.15659387409687042,-0.15020228922367096,-0.8341020345687866,3.579941
-1.1420341730117798,10.903194427490234,2.583343744277954,0.17363810539245605,-0.11717908829450607,-0.9374327063560486,3.584951
-1.8076223134994507,10.548852920532227,2.82515811920166,0.2045307755470276,-0.07563377171754837,-1.0002832412719727,3.589945
-2.255337953567505,10.0580415725708,2.9735984802246094,0.258859246969223,-0.017044231295585632,-1.02584969997406,3.594942
-2.6408045291900635,9.581595420837402,2.9951462745666504,0.34088462591171265,0.06604639440774918,-1.006674885749817,3.599942
-2.9233202934265137,9.129091262817383,2.851494312286377,0.4090615510940552,0.17896442115306854,-0.943824291229248,3.604946
-3.1004912853240967,8.705317497253418,2.5067291259765625,0.44208472967147827,0.31744879484176636,-0.8394283652305603,3.609945
-3.160346269607544,8.322244644165039,1.9608511924743652,0.39308255910873413,0.46125948429107666,-0.6892260909080505,3.614952
-3.098097085952759,8.078036308288574,1.3503297567367554,0.27590349316596985,0.5795038342475891,-0.49321743845939636,3.61995
-3.043030261993408,8.042123794555664,0.8140285611152649,0.16831177473068237,0.6359628438949585,-0.26738137006759644,3.624947
-2.940079689025879,8.054094314575195,0.21308395266532898,0.148071750998497,0.612527072429657,-0.05432848632335663,3.629944
-2.784456491470337,8.178592681884766,-0.22744916379451752,0.18002969026565552,0.5209143161773682,0.1395496428012848,3.634945
-2.5234885215759277,8.360552787780762,-0.569819986820221,0.18855179846286774,0.3792341351509094,0.3142530024051666,3.63995
-2.1930887699127197,8.468291282653809,-0.7948749661445618,0.16618125140666962,0.20559602975845337,0.4548678994178772,3.644946
-1.8579005002975464,8.5903959274292,-0.7996633648872375,0.10865697264671326,0.029827404767274857,0.5656554102897644,3.649957
-1.6519991159439087,8.681375503540039,-0.646434485912323,0.01810949482023716,-0.13848437368869781,0.6434197425842285,3.654952
-1.4867992401123047,8.712499618530273,-0.3232172429561615,-0.052197955548763275,-0.28549087047576904,0.6817692518234253,3.659949
-1.3886369466781616,8.743624687194824,0.05985504388809204,-0.13528858125209808,-0.399474173784256,0.6860302686691284,3.664948
-1.1540051698684692,8.741230010986328,0.5219359993934631,-0.22157500684261322,-0.48043426871299744,0.6817692518234253,3.669948
-0.9672574996948242,8.951920509338379,1.1540051698684692,-0.3099919557571411,-0.5251753926277161,0.6775081753730774,3.674953
-0.9959878921508789,9.315838813781738,1.7477672100067139,-0.42504051327705383,-0.5496764183044434,0.6572681665420532,3.679952
-1.1085153818130493,9.50737476348877,2.4588451385498047,-0.4314320981502533,-0.5518069863319397,0.605070173740387,3.68496
-1.1300631761550903,9.5624418258667,3.2130186557769775,-0.36432042717933655,-0.5230448246002197,0.5454154014587402,3.689953
-1.1180921792984009,9.684545516967773,3.756502389907837,-0.32597091794013977,-0.4538026452064514,0.5049353241920471,3.69495
-0.9241618514060974,9.600749015808105,4.182670593261719,-0.24927186965942383,-0.33555829524993896,0.47936898469924927,3.699954
-0.6703764796257019,9.545681953430176,4.426878929138184,-0.16085493564605713,-0.16937704384326935,0.445280522108078,3.704956
-0.5889736413955688,9.780313491821289,4.479551315307617,-0.04261057823896408,0.04580637067556381,0.41438785195350647,3.709959
-0.5841852426528931,9.950302124023438,4.225766181945801,0.049002163112163544,0.2886866629123688,0.37816888093948364,3.714962
-0.5817909836769104,9.926360130310059,3.600879430770874,0.044741105288267136,0.5283711552619934,0.3419498801231384,3.719961
-0.3926490843296051,9.591172218322754,2.7916390895843506,0.022370552644133568,0.7286408543586731,0.30360037088394165,3.724958
-0.05267243832349777,9.165003776550293,2.0614075660705566,0.017044231295585632,0.8564726114273071,0.2695119082927704,3.729953
0.09576806426048279,9.169792175292969,1.357512354850769,0.041545312851667404,0.8884305357933044,0.25353294610977173,3.734954
0.08858546614646912,9.387664794921875,0.8068459630012512,0.10865697264671326,0.8319715261459351,0.23542344570159912,3.739959
0.0071826050989329815,9.526528358459473,0.4213795065879822,0.14274543523788452,0.7105313539505005,0.20985709130764008,3.744955
-0.14604631066322327,9.552865028381348,0.22266076505184174,0.09906959533691406,0.5528722405433655,0.16937704384326935,3.749963
-0.22744916379451752,9.363722801208496,0.2753331959247589,0.022370552644133568,0.3813646733760834,0.1257012039422989,3.754962
-0.33518823981285095,9.102754592895508,0.5626373887062073,-0.02876213937997818,0.20985709130764008,0.07350324839353561,3.759957
-0.36152446269989014,8.927978515625,1.0199298858642578,-0.027696875855326653,0.07137271761894226,-0.002130528911948204,3.764956
-0.4118026793003082,8.796297073364258,1.4484920501708984,-0.03515372797846794,-0.020240023732185364,-0.07243797928094864,3.769963
-0.5626373887062073,8.803479194641113,1.8387469053268433,-0.08948221057653427,-0.049002163112163544,-0.11717908829450607,3.774962
-0.730231523513794,8.724471092224121,2.1571757793426514,-0.1949433833360672,-0.027696875855326653,-0.15020228922367096,3.779959
-0.9217676520347595,8.669404029846191,2.3582887649536133,-0.32703617215156555,0.02130528911948204,-0.15659387409687042,3.784968
-1.0295066833496094,8.576030731201172,2.5067291259765625,-0.44634580612182617,0.05965480953454971,-0.1395496428012848,3.789961
-0.8834604024887085,8.497021675109863,2.631227731704712,-0.5028048157691956,0.0649811327457428,-0.09693906456232071,3.794959
-0.7254431247711182,8.700529098510742,2.8419175148010254,-0.47510793805122375,0.029827404767274857,-0.034088462591171265,3.79996
-0.6105214357376099,9.038111686706543,3.0119056701660156,-0.4037352204322815,-0.03515372797846794,0.024501081556081772,3.804964
-0.37828385829925537,9.272743225097656,3.272873640060425,-0.28442561626434326,-0.1065264418721199,0.05965480953454971,3.809962
-0.1628057211637497,9.579200744628906,3.4979286193847656,-0.19174759089946747,-0.15659387409687042,0.07776430249214172,3.814971
0.05267243832349777,9.926360130310059,3.643975019454956,-0.1257012039422989,-0.1715075671672821,0.07030745595693588,3.819967
0.31124621629714966,10.232817649841309,3.801992416381836,-0.049002163112163544,-0.14168016612529755,0.026631610468029976,3.824964
0.35913026332855225,10.74996566772461,3.869029998779297,-0.06072007119655609,-0.08202536404132843,-0.013848437927663326,3.829963
0.38307225704193115,10.912771224975586,3.77565598487854,-0.06924218684434891,-0.013848437927663326,-0.08309062570333481,3.834962
0.3471592366695404,10.745177268981934,3.6152446269989014,-0.044741105288267136,0.04687163606286049,-0.1768338978290558,3.839968
0.24181437492370605,10.527304649353027,3.399766445159912,-0.029827404767274857,0.08628641813993454,-0.2652508318424225,3.844963
0.11971008777618408,10.304644584655762,3.184288263320923,0.002130528911948204,0.092678003013134,-0.3398193418979645,3.849971
0.028730420395731926,9.955090522766113,2.96162748336792,0.052197955548763275,0.07243797928094864,-0.4048004746437073,3.854969
-0.06464344263076782,9.600749015808105,2.779668092727661,0.07776430249214172,0.04580637067556381,-0.4495415985584259,3.859967
-0.22266076505184174,9.349357604980469,2.6671407222747803,0.05006742849946022,0.019174760207533836,-0.4772384762763977,3.864965
-0.38307225704193115,9.169792175292969,2.6815059185028076,-0.019174760207533836,-0.014913702383637428,-0.4974784851074219,3.869972
-0.6009446382522583,9.057265281677246,2.9328970909118652,-0.092678003013134,-0.05965480953454971,-0.5198490619659424,3.87497
-0.9528923034667969,8.968679428100586,3.3303346633911133,-0.1065264418721199,-0.12144014239311218,-0.555002748966217,3.879968
-1.3694833517074585,8.901641845703125,3.7205893993377686,-0.05326322093605995,-0.17257283627986908,-0.5933522582054138,3.884975
-1.821987509727478,8.889671325683594,4.110844135284424,-0.03941478207707405,-0.1949433833360672,-0.6082659959793091,3.889971
-2.205059766769409,8.755595207214355,4.314351558685303,-0.09587379544973373,-0.17789915204048157,-0.5965480804443359,3.894968
-2.346317768096924,8.341399192810059,4.41969633102417,-0.12144014239311218,-0.1161138191819191,-0.5592638254165649,3.899968
-2.319981336593628,7.943961143493652,4.400542736053467,-0.13635385036468506,-0.019174760207533836,-0.48043426871299744,3.904972
-2.319981336593628,7.860164165496826,4.19224739074707,-0.15978966653347015,0.10120011866092682,-0.362189918756485,3.90997
-2.3080103397369385,8.01339340209961,3.794809579849243,-0.19600865244865417,0.2130528837442398,-0.2173139452934265,3.914978
-2.094926595687866,8.121131896972656,3.308786630630493,-0.27057716250419617,0.2865561246871948,-0.05326322093605995,3.919976
-1.6950948238372803,8.190564155578613,2.7700912952423096,-0.31318774819374084,0.30360037088394165,0.13209278881549835,3.924973
-1.091755986213684,8.35336971282959,2.298433542251587,-0.28122982382774353,0.2684466242790222,0.3025350868701935,3.92997
-0.5171475410461426,8.856152534484863,1.9608511924743652,-0.20240023732185364,0.1992044448852539,0.43356263637542725,3.934971
-0.026336219161748886,9.66299819946289,1.7094600200653076,-0.20240023732185364,0.10759170353412628,0.5336974859237671,3.939976
0.33758243918418884,10.656591415405273,1.5969325304031372,-0.33236250281333923,-0.006391586735844612,0.5954828262329102,3.944972
0.5219359993934631,11.42752456665039,1.6735470294952393,-0.4261057674884796,-0.14168016612529755,0.5848301649093628,3.949981
0.6392518281936646,12.006921768188477,2.0829553604125977,-0.4165183901786804,-0.3067961633205414,0.5070658922195435,3.954979
0.5889736413955688,12.473791122436523,2.5665841102600098,-0.35473304986953735,-0.48895636200904846,0.39734363555908203,3.959975
0.4405331015586853,12.58152961730957,3.0526070594787598,-0.24501082301139832,-0.642354428768158,0.2514024078845978,3.964973
0.26096799969673157,12.459425926208496,3.6296098232269287,-0.14274543523788452,-0.7350324392318726,0.09480853378772736,3.969978
-0.021547814831137657,12.294225692749023,4.199429988861084,-0.07989483326673508,-0.7627293467521667,-0.04687163606286049,3.974978
-0.3423708379268646,11.997344970703125,4.659116744995117,-0.03834952041506767,-0.7211840152740479,-0.16618125140666962,3.979979
-0.6177040338516235,11.571176528930664,4.93923807144165,0.034088462591171265,-0.6167880892753601,-0.2631203234195709,3.984986
-0.9050082564353943,11.140220642089844,5.061342239379883,0.1342233121395111,-0.4687163531780243,-0.3387540876865387,3.989979
-1.2306196689605713,10.776301383972168,5.03021764755249,0.23435817658901215,-0.28442561626434326,-0.39095205068588257,3.994976
-1.4867992401123047,10.335768699645996,4.821922302246094,0.2865561246871948,-0.08202536404132843,-0.42504051327705383,3.999976
-1.601720929145813,9.84495735168457,4.414907932281494,0.3057308793067932,0.11078750342130661,-0.43888893723487854,4.00498
-1.7310078144073486,9.564835548400879,4.003105163574219,0.324905663728714,0.26631611585617065,-0.42397522926330566,4.00998
-1.9057846069335938,9.354146003723145,3.557783842086792,0.3387540876865387,0.3664509654045105,-0.399474173784256,4.014997
-2.013523578643799,9.045293807983398,3.1459810733795166,0.37816888093948364,0.4133225977420807,-0.36964675784111023,4.019988
-1.886630892753601,8.554482460021973,2.786850690841675,0.41864892840385437,0.42077943682670593,-0.3387540876865387,4.024981
-1.6663644313812256,8.20732307434082,2.5258827209472656,0.44847631454467773,0.4165183901786804,-0.2929477095603943,4.029979
-1.5322890281677246,8.26478385925293,2.3343467712402344,0.4133225977420807,0.399474173784256,-0.22796659171581268,4.034979
-1.556231141090393,8.485051155090332,2.1356279850006104,0.32703617215156555,0.37390780448913574,-0.17044231295585632,4.039985
-1.4772224426269531,8.358158111572266,2.0015525817871094,0.24927186965942383,0.3536677956581116,-0.148071750998497,4.044982
-1.381454348564148,8.24084186553955,1.8722656965255737,0.16831177473068237,0.33662354946136475,-0.12783172726631165,4.049989
-1.3479355573654175,8.310274124145508,1.7884687185287476,0.06391586363315582,0.3142530024051666,-0.08309062570333481,4.054988
-1.2425906658172607,8.281543731689453,1.678335428237915,-0.014913702383637428,0.2865561246871948,-0.017044231295585632,4.059984
-1.015141487121582,8.166622161865234,1.5466543436050415,-0.04261057823896408,0.2545982003211975,0.05752427875995636,4.064982
-0.7661445140838623,8.176198959350586,1.3670891523361206,-0.04687163606286049,0.2322276383638382,0.1438107043504715,4.069989
-0.6344634294509888,8.49941635131836,1.1779472827911377,-0.09054747968912125,0.22903184592723846,0.23755396902561188,4.074987
-0.45250412821769714,8.83939266204834,0.9864110946655273,-0.21624867618083954,0.23861923813819885,0.31744879484176636,4.079985
-0.2849099934101105,9.081207275390625,0.7613561153411865,-0.37390780448913574,0.2364886999130249,0.3749730885028839,4.084994
-0.15322890877723694,9.315838813781738,0.6009446382522583,-0.4601942300796509,0.20985709130764008,0.40053942799568176,4.089987
-0.13168109953403473,9.674968719482422,0.6248866319656372,-0.5102616548538208,0.14274543523788452,0.39095205068588257,4.094985
-0.1388636976480484,10.050858497619629,0.7996633648872375,-0.5060005784034729,0.04048004746437073,0.3419498801231384,4.099985
-0.29209262132644653,10.529699325561523,1.115697979927063,-0.4175836443901062,-0.08948221057653427,0.260989785194397,4.10499
-0.40701428055763245,10.745177268981934,1.5538369417190552,-0.28016453981399536,-0.2183792144060135,0.13102751970291138,4.109987
-0.5051765441894531,10.819397926330566,2.1116859912872314,-0.12144014239311218,-0.3099919557571411,-0.03621898964047432,4.11499
-0.7206547260284424,10.960655212402344,2.5713725090026855,0.04580637067556381,-0.3419498801231384,-0.20559602975845337,4.119993
-1.070208191871643,10.991780281066895,2.978386878967285,0.16405072808265686,-0.30466562509536743,-0.3675162196159363,4.12499
-1.4915876388549805,10.757147789001465,3.201047658920288,0.20240023732185364,-0.19600865244865417,-0.5102616548538208,4.129988
-1.8794482946395874,10.342951774597168,3.272873640060425,0.22903184592723846,-0.02556634694337845,-0.6072007417678833,4.134989
-2.296039342880249,9.895236015319824,3.201047658920288,0.2034655064344406,0.18642127513885498,-0.6519418358802795,4.139994
-2.6599581241607666,9.493009567260742,2.9520506858825684,0.1299622654914856,0.4069310128688812,-0.6434197425842285,4.144989
-2.9233202934265137,9.133879661560059,2.6192567348480225,0.06924218684434891,0.5965480804443359,-0.5848301649093628,4.150001
-3.0885202884674072,8.774748802185059,2.231395959854126,0.026631610468029976,0.7360976934432983,-0.48363006114959717,4.154997
-3.155557870864868,8.554482460021973,1.742978811264038,0.024501081556081772,0.8127967715263367,-0.3430151343345642,4.159992
-3.0597896575927734,8.44195556640625,1.235408067703247,0.06391586363315582,0.8298410177230835,-0.1810949593782425,4.164991
-2.846705913543701,8.346187591552734,0.6967126727104187,0.11504855751991272,0.8042746186256409,-0.020240023732185364,4.169992
-2.4636335372924805,8.339004516601562,0.14604631066322327,0.14913702011108398,0.7520766854286194,0.13209278881549835,4.174995
-1.9800047874450684,8.53293514251709,-0.2968810200691223,0.10439591109752655,0.6743123531341553,0.2822950780391693,4.179994
-1.4891934394836426,8.757989883422852,-0.6416460275650024,-0.02556634694337845,0.5773733258247375,0.41864892840385437,4.185003
-0.9840168952941895,9.023746490478516,-0.8619126081466675,-0.2087918221950531,0.45167210698127747,0.5283711552619934,4.189996
-0.5530605912208557,9.368511199951172,-0.7733271718025208,-0.37284255027770996,0.2886866629123688,0.6103965044021606,4.194994
-0.22266076505184174,9.780313491821289,-0.4596867263317108,-0.5060005784034729,0.07350324839353561,0.6604639291763306,4.199993
0.023942016065120697,10.1753568649292,-0.011971008032560349,-0.5688512325286865,-0.18322548270225525,0.6753776669502258,4.204997
0.19393034279346466,10.587160110473633,0.727837324142456,-0.5060005784034729,-0.4538026452064514,0.6476807594299316,4.209996
0.33997663855552673,10.955866813659668,1.6041151285171509,-0.43782368302345276,-0.7115966081619263,0.5795038342475891,4.215
0.47405192255973816,11.200075149536133,2.473210334777832,-0.36432042717933655,-0.9203884601593018,0.48469531536102295,4.220002
0.5770025849342346,11.41555404663086,3.3925838470458984,-0.18322548270225525,-1.048220157623291,0.37816888093948364,4.224998
0.6200982332229614,11.549629211425781,4.1874589920043945,-0.01810949482023716,-1.080178141593933,0.2599245309829712,4.229996
0.5961562395095825,11.599906921386719,4.78122091293335,0.08309062570333481,-1.0024138689041138,0.12463593482971191,4.234997
0.507570743560791,11.544840812683105,5.224148273468018,0.185356006026268,-0.8202536106109619,-0.009587380103766918,4.240002
0.3232172429561615,11.468226432800293,5.415684223175049,0.23542344570159912,-0.5656554102897644,-0.1299622654914856,4.244997
0.011971008032560349,11.382035255432129,5.324704647064209,0.2269013226032257,-0.28122982382774353,-0.2322276383638382,4.250004
-0.3519476354122162,11.15697956085205,4.987122058868408,0.250337153673172,-0.011717909015715122,-0.32277512550354004,4.255004
-0.5793967843055725,10.826580047607422,4.383783340454102,0.28442561626434326,0.2045307755470276,-0.3952130973339081,4.26
-0.828393816947937,10.625467300415039,3.706224203109741,0.36432042717933655,0.34621092677116394,-0.4175836443901062,4.264999
-1.0319008827209473,10.407594680786133,3.0310592651367188,0.46658581495285034,0.40160468220710754,-0.40053942799568176,4.27
-1.3072341680526733,10.309432983398438,2.3989901542663574,0.5826996564865112,0.3845604658126831,-0.3611246347427368,4.275004
-1.5107412338256836,10.228029251098633,1.8531121015548706,0.69561767578125,0.3153182566165924,-0.3195793330669403,4.280005
-1.7597382068634033,10.196905136108398,1.3886369466781616,0.7456851005554199,0.222640261054039,-0.2780340015888214,4.285011
-1.9776105880737305,10.08198356628418,1.0438719987869263,0.7307714223861694,0.13102751970291138,-0.24820661544799805,4.290004
-2.212242364883423,9.916783332824707,0.871489405632019,0.6977481842041016,0.049002163112163544,-0.22477079927921295,4.295002
-2.497152328491211,9.837775230407715,0.7541735172271729,0.6103965044021606,-0.022370552644133568,-0.18322548270225525,4.300002
-2.7557260990142822,9.615114212036133,0.7110779285430908,0.47936898469924927,-0.08948221057653427,-0.12783172726631165,4.305006
-2.889801502227783,9.229647636413574,0.7661445140838623,0.40053942799568176,-0.14700649678707123,-0.05006742849946022,4.310007
-2.935291290283203,8.80587387084961,0.8595184087753296,0.34940671920776367,-0.2034655064344406,0.05645901337265968,4.315017
-2.9089550971984863,8.489839553833008,0.933738648891449,0.30360037088394165,-0.24501082301139832,0.18855179846286774,4.320011
-2.7269957065582275,8.281543731689453,1.0438719987869263,0.250337153673172,-0.2652508318424225,0.3387540876865387,4.325008
-2.4899697303771973,8.29590892791748,1.1061211824417114,0.16511598229408264,-0.2684466242790222,0.5028048157691956,4.330005
-2.1499931812286377,8.370129585266113,1.158793568611145,0.06924218684434891,-0.25246766209602356,0.6615291833877563,4.335005
-1.6328455209732056,8.485051155090332,1.235408067703247,-0.04687163606286049,-0.222640261054039,0.8010788559913635,4.340011
-1.1300631761550903,8.791508674621582,1.2976573705673218,-0.15552860498428345,-0.1896170675754547,0.9139968752861023,4.345007
-0.7326257228851318,9.198522567749023,1.3527239561080933,-0.23329290747642517,-0.16298545897006989,0.9747169613838196,4.350013
-0.4357447028160095,9.576807022094727,1.4532804489135742,-0.28442561626434326,-0.14168016612529755,0.9672601222991943,4.355013
-0.08858546614646912,9.84256362915039,1.6352397203445435,-0.3153182566165924,-0.1257012039422989,0.9044095277786255,4.360008
0.2298433631658554,10.103530883789062,1.86508309841156,-0.34514567255973816,-0.11078750342130661,0.8138620257377625,4.365008
0.42616790533065796,10.374075889587402,2.1715409755706787,-0.3387540876865387,-0.09906959533691406,0.704139769077301,4.37001
0.6320692300796509,10.565611839294434,2.559401512145996,-0.333427757024765,-0.08735167980194092,0.5731122493743896,4.375014
0.8427590131759644,10.709263801574707,2.9065608978271484,-0.3291667103767395,-0.07350324839353561,0.45167210698127747,4.380011
0.9169792532920837,10.903194427490234,3.2776620388031006,-0.30466562509536743,-0.06604639440774918,0.35579830408096313,4.38502
0.7350199222564697,11.305420875549316,3.6296098232269287,-0.2641855776309967,-0.07669904083013535,0.27696874737739563,4.390013
0.5554547905921936,11.434707641601562,3.825934410095215,-0.16405072808265686,-0.1065264418721199,0.18429075181484222,4.39501
0.33758243918418884,11.473014831542969,3.9217023849487305,0.006391586735844612,-0.148071750998497,0.0884169489145279,4.400013
-0.011971008032560349,11.489773750305176,3.955221176147461,0.18642127513885498,-0.18216021358966827,0.003195793367922306,4.405015
-0.2777273952960968,11.238382339477539,3.88818359375,0.3536677956581116,-0.19707392156124115,-0.092678003013134,4.410013
-0.49799394607543945,10.81700325012207,3.780444383621216,0.5315669775009155,-0.18002969026565552,-0.17896442115306854,4.415021
-0.6751648783683777,10.383652687072754,3.689464807510376,0.7105313539505005,-0.12783172726631165,-0.2407497614622116,4.420019
-0.7565677165985107,9.84256362915039,3.5697548389434814,0.8298410177230835,-0.04048004746437073,-0.2748382091522217,4.425016
-0.667982280254364,9.217676162719727,3.3063924312591553,0.9214537143707275,0.07350324839353561,-0.2865561246871948,4.430016
-0.5051765441894531,8.710105895996094,3.002328872680664,1.001348614692688,0.20985709130764008,-0.28549087047576904,4.435014
-0.29209262132644653,8.24084186553955,2.6240451335906982,1.0716559886932373,0.35473304986953735,-0.28549087047576904,4.440019
0.021547814831137657,7.905653953552246,2.142810583114624,1.160072922706604,0.4953479468822479,-0.2822950780391693,4.445015
0.31124621629714966,7.709329605102539,1.5394717454910278,1.210140347480774,0.6274407505989075,-0.2737729549407959,4.450023
0.5578489899635315,7.546523571014404,0.9097966551780701,1.2133362293243408,0.7499461770057678,-0.27696874737739563,4.455021
0.8140285611152649,7.479485988616943,0.1364694982767105,1.1526161432266235,0.8543420433998108,-0.2865561246871948,4.460018
0.9720458984375,7.582436561584473,-0.5506663918495178,1.0215885639190674,0.9267800450325012,-0.296143501996994,4.465017
1.072602391242981,7.857769966125488,-1.1061211824417114,0.8245146870613098,0.9448895454406738,-0.3121224641799927,4.470018
0.9481038451194763,8.274360656738281,-1.5610195398330688,0.6391586661338806,0.8958873748779297,-0.3398193418979645,4.475022
0.7254431247711182,8.616731643676758,-1.9153614044189453,0.4729773998260498,0.7733819484710693,-0.39734363555908203,4.48002
0.33039984107017517,8.918401718139648,-1.9776105880737305,0.29401299357414246,0.5848301649093628,-0.4729773998260498,4.485029
-0.21308395266532898,9.378087997436523,-1.900996208190918,0.1203748807311058,0.333427757024765,-0.5390238165855408,4.490022
-0.7924807667732239,9.703699111938477,-1.5275006294250488,0.03941478207707405,0.03621898964047432,-0.5858954191207886,4.495019
-1.2976573705673218,9.646238327026367,-0.9409212470054626,0.07989483326673508,-0.2790992856025696,-0.6306365132331848,4.50002
-1.6687586307525635,9.188945770263672,-0.2537853717803955,0.2269013226032257,-0.5571333169937134,-0.6689860820770264,4.505023
-1.8842366933822632,8.774748802185059,0.47165772318840027,0.3653857111930847,-0.7467503547668457,-0.6689860820770264,4.510022
-2.0207061767578125,8.494627952575684,1.1851298809051514,0.4048004746437073,-0.8255799412727356,-0.6221144199371338,4.515026
-2.1164743900299072,8.362946510314941,1.7860745191574097,0.40160468220710754,-0.7872304320335388,-0.5422195792198181,4.520027
-2.183511972427368,8.370129585266113,2.2601263523101807,0.40160468220710754,-0.6647250056266785,-0.44315001368522644,4.525024
-2.2242133617401123,8.489839553833008,2.4636335372924805,0.4069310128688812,-0.48363006114959717,-0.3472762107849121,4.530022
-2.207453966140747,8.650250434875488,2.4229321479797363,0.4410194754600525,-0.2748382091522217,-0.2748382091522217,4.535023
-2.298433542251587,8.951920509338379,2.1092917919158936,0.4729773998260498,-0.06604639440774918,-0.23435817658901215,4.540027
-2.31758713722229,9.150638580322266,1.5634137392044067,0.530501663684845,0.1203748807311058,-0.2322276383638382,4.545024
-2.4588451385498047,9.349357604980469,1.0199298858642578,0.6008091568946838,0.2790992856025696,-0.27164241671562195,4.550032
-2.5785553455352783,9.339780807495117,0.45250412821769714,0.6178533434867859,0.4175836443901062,-0.3419498801231384,4.55503
-2.691082715988159,9.255983352661133,-0.014365210197865963,0.592287003993988,0.5283711552619934,-0.4048004746437073,4.560028
-2.8802247047424316,9.124302864074707,-0.5051765441894531,0.48576056957244873,0.6082659959793091,-0.4324973523616791,4.565025
-3.07415509223938,8.87291145324707,-0.9911994934082031,0.3419498801231384,0.6593986749649048,-0.42397522926330566,4.570028
-3.201047658920288,8.540117263793945,-1.3120225667953491,0.20666129887104034,0.6902913451194763,-0.38669097423553467,4.575031
-3.2130186557769775,8.130708694458008,-1.5921441316604614,0.007456851191818714,0.69561767578125,-0.3099919557571411,4.580029
-3.134010076522827,7.642292022705078,-1.8938134908676147,-0.185356006026268,0.6743123531341553,-0.18748654425144196,4.585039
-2.8586769104003906,7.096413612365723,-2.013523578643799,-0.33662354946136475,0.6263754963874817,-0.041545312851667404,4.59003
-2.58813214302063,6.768408298492432,-2.03507137298584,-0.5432848334312439,0.5507417321205139,0.1438107043504715,4.595028
-2.3965959548950195,6.775590896606445,-2.0614075660705566,-0.7147924304008484,0.44741106033325195,0.3568635880947113,4.600028
-2.0159177780151367,6.780379295349121,-1.9991583824157715,-0.8309062719345093,0.3142530024051666,0.5645901560783386,4.605032
-1.4317326545715332,6.842628479003906,-1.845929503440857,-0.9470200538635254,0.15552860498428345,0.7659251093864441,4.610033
-0.7948749661445618,7.067683219909668,-1.5873557329177856,-1.01093590259552,-0.011717909015715122,0.9491506218910217,4.615035
-0.3064578175544739,7.570465564727783,-1.2449848651885986,-1.0418286323547363,-0.18002969026565552,1.100418210029602,4.620036
0.011971008032560349,8.305485725402832,-0.8595184087753296,-1.1238539218902588,-0.3344930410385132,1.200553059577942,4.625033
0.2777273952960968,9.035717010498047,-0.45010992884635925,-1.2506204843521118,-0.47617319226264954,1.2314456701278687,4.630031
0.4812345504760742,9.72285270690918,0.10295066982507706,-1.3454289436340332,-0.6093312501907349,1.2037488222122192,4.635031
0.5147533416748047,10.395624160766602,0.7565677165985107,-1.4018880128860474,-0.7392935156822205,1.130245566368103,4.640036
0.44532153010368347,11.070788383483887,1.3982137441635132,-1.370995283126831,-0.869255781173706,1.0130665302276611,4.645033
0.3232172429561615,11.535264015197754,2.073378562927246,-1.2506204843521118,-0.9875001311302185,0.8522115349769592,4.650041
0.20350714027881622,11.767500877380371,2.7461493015289307,-1.0993528366088867,-1.0737864971160889,0.6657902598381042,4.655039
0.15801730751991272,11.719616889953613,3.361459255218506,-0.9182579517364502,-1.1121360063552856,0.482564777135849,4.660035
0.22505496442317963,11.453861236572266,3.9240965843200684,-0.732901930809021,-1.0961570739746094,0.324905663728714,4.665034
0.31603461503982544,11.003750801086426,4.4292731285095215,-0.5656554102897644,-1.0247843265533447,0.1906823366880417,4.670037
0.4596867263317108,10.63504409790039,4.759673118591309,-0.36858150362968445,-0.9118663668632507,0.08735167980194092,4.67504
0.5602431893348694,10.682928085327148,5.04218864440918,-0.13848437368869781,-0.761664092540741,0.015978965908288956,4.680037
0.6392518281936646,10.970232009887695,5.212177276611328,0.07243797928094864,-0.5933522582054138,-0.04580637067556381,4.685045
0.6057330369949341,11.118672370910645,5.228936672210693,0.27696874737739563,-0.41971418261528015,-0.12357067316770554,4.690039
0.5386953949928284,11.106701850891113,5.0900726318359375,0.5709817409515381,-0.24181503057479858,-0.2599245309829712,4.695037
0.47644615173339844,11.106701850891113,4.874594688415527,0.943824291229248,-0.04687163606286049,-0.4548678994178772,4.700039
0.42377370595932007,11.08754825592041,4.517858505249023,1.2399678230285645,0.17257283627986908,-0.6679207682609558,4.705047
0.17717093229293823,10.951078414916992,3.971980571746826,1.4391722679138184,0.4090615510940552,-0.8479504585266113,4.71004
-0.15562310814857483,10.244789123535156,3.1196448802948,1.5339807271957397,0.6327670812606812,-0.9906958937644958,4.715044
-0.4429273009300232,9.385271072387695,2.1571757793426514,1.6160061359405518,0.8202536106109619,-1.0950918197631836,4.720045
-0.9313444495201111,9.083600997924805,1.192312479019165,1.6202671527862549,0.9448895454406738,-1.1345065832138062,4.725042
-1.4532804489135742,8.889671325683594,0.05027823522686958,1.4700648784637451,0.9789780378341675,-1.1121360063552856,4.730041
-1.9823989868164062,8.65982723236084,-1.0127472877502441,1.370995283126831,0.9235842823982239,-1.042893886566162,4.73504
-2.513911724090576,8.540117263793945,-1.9033904075622559,1.2452940940856934,0.7861651182174683,-0.9384979605674744,4.740045
-2.940079689025879,8.456320762634277,-2.6001031398773193,1.031175971031189,0.5826996564865112,-0.8053399324417114,4.745041
-3.155557870864868,8.348581314086914,-2.913743495941162,0.8032093644142151,0.34088462591171265,-0.642354428768158,4.75005
-3.184288263320923,8.185775756835938,-2.920926094055176,0.5454154014587402,0.07989483326673508,-0.44634580612182617,4.755047
-3.023876667022705,8.070854187011719,-2.604891538619995,0.2908172011375427,-0.18002969026565552,-0.22370553016662598,4.760045
-2.7557260990142822,8.090007781982422,-1.9967641830444336,0.08735167980194092,-0.41012680530548096,-0.001065264455974102,4.765043
-2.408566951751709,8.305485725402832,-1.290474772453308,-0.04367583990097046,-0.5954828262329102,0.1949433833360672,4.770045
-2.1116859912872314,8.889671325683594,-0.44532153010368347,-0.13528858125209808,-0.7179882526397705,0.35579830408096313,4.775048
-1.8938134908676147,9.466673851013184,0.3663128614425659,-0.2130528837442398,-0.7733819484710693,0.4548678994178772,4.780047
-1.8052281141281128,10.046070098876953,1.0749965906143188,-0.24820661544799805,-0.7659251093864441,0.4974784851074219,4.785054
-1.721431016921997,10.572794914245605,1.6328455209732056,-0.2130528837442398,-0.704139769077301,0.4814995229244232,4.790049
-1.6639702320098877,10.977415084838867,2.0470423698425293,-0.14594122767448425,-0.6072007417678833,0.4399542212486267,4.795046
-1.6615760326385498,11.245565414428711,2.2577321529388428,-0.10546118021011353,-0.48469531536102295,0.3845604658126831,4.800046
-1.6400281190872192,11.168951034545898,2.2864625453948975,-0.04367583990097046,-0.3440804183483124,0.3121224641799927,4.80505
-1.5945383310317993,10.848128318786621,2.10210919380188,0.02876213937997818,-0.20559602975845337,0.2364886999130249,4.810049
-1.5825673341751099,10.529699325561523,1.7381904125213623,0.10759170353412628,-0.08415588736534119,0.1672465205192566,4.815054
-1.7525556087493896,10.362105369567871,1.278503656387329,0.2269013226032257,0.01065264455974102,0.09693906456232071,4.820054
-1.886630892753601,10.096348762512207,0.7350199222564697,0.3387540876865387,0.08202536404132843,0.027696875855326653,4.82505
-1.9560627937316895,9.701305389404297,0.20111294090747833,0.3845604658126831,0.13209278881549835,-0.019174760207533836,4.830049
-1.9800047874450684,9.181763648986816,-0.20111294090747833,0.3856257200241089,0.1672465205192566,-0.03302319720387459,4.835049
-1.8914192914962769,8.530540466308594,-0.5961562395095825,0.3398193418979645,0.18855179846286774,-0.015978965908288956,4.840054
-1.778891921043396,7.975085735321045,-0.9576807022094727,0.26631611585617065,0.19281286001205444,0.03515372797846794,4.84505
-1.599326729774475,7.594407558441162,-1.2401964664459229,0.19387812912464142,0.1768338978290558,0.1257012039422989,4.850059
-1.3407529592514038,7.467514991760254,-1.479616641998291,0.0788295641541481,0.14061491191387177,0.2460760772228241,4.855056
-1.1563993692398071,7.766790390014648,-1.5921441316604614,-0.052197955548763275,0.07669904083013535,0.370712012052536,4.860053
-0.9768342971801758,8.29590892791748,-1.5634137392044067,-0.15552860498428345,-0.023435818031430244,0.4697816073894501,4.865052
-0.8690952062606812,8.901641845703125,-1.3551181554794312,-0.2322276383638382,-0.14913702011108398,0.5283711552619934,4.870054
-0.7445967197418213,9.495404243469238,-0.9768342971801758,-0.2695119082927704,-0.287621408700943,0.5443501472473145,4.875057
-0.6536170840263367,9.976638793945312,-0.5291185975074768,-0.29827404022216797,-0.42930155992507935,0.521979570388794,4.880058
-0.6105214357376099,10.314221382141113,0.011971008032560349,-0.31744879484176636,-0.5560680031776428,0.474042683839798,4.885063
-0.6105214357376099,10.500968933105469,0.5506663918495178,-0.3142530024051666,-0.6593986749649048,0.41012680530548096,4.890057
-0.6751648783683777,10.654197692871094,1.0630255937576294,-0.260989785194397,-0.7339671850204468,0.333427757024765,4.895054
-0.7469909191131592,10.625467300415039,1.4963760375976562,-0.16618125140666962,-0.7637946009635925,0.2514024078845978,4.900055
-0.9169792532920837,10.60152530670166,1.802833914756775,-0.08202536404132843,-0.7403587698936462,0.1757686287164688,4.905059
-1.1037269830703735,10.465055465698242,1.9560627937316895,-0.026631610468029976,-0.658333420753479,0.10546118021011353,4.91006
-1.1875240802764893,10.089165687561035,1.9488801956176758,-0.009587380103766918,-0.5336974859237671,0.05752427875995636,4.915063
-1.1851298809051514,9.619902610778809,1.821987509727478,-0.026631610468029976,-0.3856257200241089,0.049002163112163544,4.920063
-1.2066776752471924,9.260771751403809,1.6041151285171509,-0.05006742849946022,-0.2364886999130249,0.06072007119655609,4.92506
-1.173158884048462,9.069235801696777,1.2545616626739502,-0.06072007119655609,-0.10972223430871964,0.092678003013134,4.930057
-1.0582371950149536,8.942343711853027,0.9145850539207458,-0.07137271761894226,-0.022370552644133568,0.13741910457611084,4.935058
-0.8954314589500427,8.808267593383789,0.5793967843055725,-0.044741105288267136,0.012783173471689224,0.1768338978290558,4.940063
-0.6368576288223267,8.676587104797363,0.31842881441116333,0.011717909015715122,0.006391586735844612,0.21944446861743927,4.94506
-0.4596867263317108,8.920795440673828,0.08140286058187485,0.07989483326673508,-0.034088462591171265,0.26738137006759644,4.950066
-0.26575639843940735,9.162610054016113,-0.026336219161748886,0.15020228922367096,-0.08309062570333481,0.2822950780391693,4.955066
-0.10295066982507706,9.430760383605957,-0.0933738648891449,0.1757686287164688,-0.12144014239311218,0.27164241671562195,4.960062
0.05985504388809204,9.706093788146973,-0.14844051003456116,0.15978966653347015,-0.14168016612529755,0.23542344570159912,4.96506
0.181959331035614,9.897629737854004,-0.2082955539226532,0.12463593482971191,-0.14594122767448425,0.17789915204048157,4.970063
0.22026655077934265,10.007762908935547,-0.26575639843940735,0.06178533658385277,-0.14168016612529755,0.09480853378772736,4.975066
0.16759411990642548,10.036493301391602,-0.3495534360408783,0.00532632227987051,-0.13209278881549835,-0.01065264455974102,4.980064
0.028730420395731926,10.012551307678223,-0.5219359993934631,-0.04048004746437073,-0.13315805792808533,-0.11185276508331299,4.98507
-0.15801730751991272,9.880870819091797,-0.706289529800415,-0.092678003013134,-0.15233281254768372,-0.19707392156124115,4.990065
-0.35434186458587646,9.691728591918945,-0.8427590131759644,-0.15659387409687042,-0.1810949593782425,-0.258859246969223,4.995063
-0.6248866319656372,9.502586364746094,-0.9074024558067322,-0.24288028478622437,-0.22903184592723846,-0.28549087047576904,5.000066
-0.9217676520347595,9.375694274902344,-0.9002198576927185,-0.3472762107849121,-0.2865561246871948,-0.2822950780391693,5.005068
-1.2234370708465576,9.275136947631836,-0.7661445140838623,-0.4399542212486267,-0.3611246347427368,-0.25353294610977173,5.010066
-1.5203180313110352,9.205705642700195,-0.47644615173339844,-0.5081311464309692,-0.445280522108078,-0.20026971399784088,5.01507
-1.7405846118927002,9.14585018157959,-0.07900865375995636,-0.5475459098815918,-0.530501663684845,-0.12889699637889862,5.020072
-1.8722656965255737,9.093177795410156,0.40701428055763245,-0.5507417321205139,-0.605070173740387,-0.04261057823896408,5.025069
-1.867477297782898,9.105149269104004,0.9648633003234863,-0.509196400642395,-0.658333420753479,0.055393751710653305,5.030068
-1.7357962131500244,9.131484985351562,1.414973258972168,-0.4495415985584259,-0.679638683795929,0.16831177473068237,5.035067
-1.5873557329177856,9.246406555175781,1.8171991109848022,-0.40160468220710754,-0.6476807594299316,0.28975191712379456,5.040071
-1.45806884765625,9.509769439697266,2.1068975925445557,-0.3483414649963379,-0.5720469951629639,0.4069310128688812,5.045068
-1.3718775510787964,9.852140426635742,2.252943754196167,-0.3302319645881653,-0.45167210698127747,0.500674307346344,5.050075
-1.2856862545013428,10.096348762512207,2.2816741466522217,-0.3398193418979645,-0.29933929443359375,0.5592638254165649,5.055079
-1.0797849893569946,10.158597946166992,2.250549554824829,-0.3568635880947113,-0.13741910457611084,0.5933522582054138,5.060071
-0.912190854549408,10.204087257385254,2.1787235736846924,-0.39308255910873413,0.011717909015715122,0.621049165725708,5.06507
-0.849941611289978,10.266336441040039,2.0398597717285156,-0.370712012052536,0.1299622654914856,0.6380934119224548,5.07007
-0.6368576288223267,10.113107681274414,1.920149803161621,-0.30466562509536743,0.22370553016662598,0.642354428768158,5.075074
-0.3447650372982025,9.854534149169922,1.7334020137786865,-0.27696874737739563,0.2972087860107422,0.6647250056266785,5.080073
-0.13168109953403473,9.682151794433594,1.5490485429763794,-0.25246766209602356,0.36325517296791077,0.6988134384155273,5.085081
0.090979665517807,9.452308654785156,1.436521053314209,-0.24288028478622437,0.4261057674884796,0.7371630072593689,5.090075
0.35434186458587646,9.17936897277832,1.237802267074585,-0.2918824553489685,0.4772384762763977,0.7936220169067383,5.095073
0.5339069962501526,9.062053680419922,1.1180921792984009,-0.3440804183483124,0.5230448246002197,0.8607336282730103,5.100072
0.8331822156906128,8.925583839416504,0.9720458984375,-0.41545313596725464,0.5571333169937134,0.9203884601593018,5.105077
1.1659762859344482,8.942343711853027,0.790086567401886,-0.5038700699806213,0.5560680031776428,0.9896306395530701,5.110075
1.403002142906189,9.17697525024414,0.7565677165985107,-0.567785918712616,0.5113269090652466,1.0503507852554321,5.115081
1.5083470344543457,9.457097053527832,0.8643068075180054,-0.5784385800361633,0.4218447208404541,1.0780476331710815,5.120081
1.5849615335464478,9.8784761428833,1.036689281463623,-0.521979570388794,0.2972087860107422,1.0663297176361084,5.125077
1.9081788063049316,10.103530883789062,1.158793568611145,-0.44208472967147827,0.15659387409687042,0.9949569702148438,5.130075
2.164358377456665,10.486603736877441,1.3503297567367554,-0.296143501996994,0.01065264455974102,0.8894957900047302,5.135076
2.1140801906585693,11.116278648376465,1.6352397203445435,-0.08948221057653427,-0.1257012039422989,0.7371630072593689,5.14008
1.9800047874450684,11.628637313842773,1.9584569931030273,0.09587379544973373,-0.24501082301139832,0.530501663684845,5.145076
1.9081788063049316,11.824962615966797,2.2002713680267334,0.28549087047576904,-0.31851404905319214,0.2908172011375427,5.150085
1.821987509727478,11.827356338500977,2.3942017555236816,0.4324973523616791,-0.3281014561653137,0.049002163112163544,5.155083
1.6184803247451782,11.674127578735352,2.499546527862549,0.46232476830482483,-0.2748382091522217,-0.1715075671672821,5.16008
1.3120225667953491,11.396400451660156,2.5091233253479004,0.44847631454467773,-0.16298545897006989,-0.36964675784111023,5.165078
0.9457096457481384,10.979808807373047,2.449268341064453,0.4271710216999054,-0.024501081556081772,-0.5368932485580444,5.170081
0.507570743560791,10.63504409790039,2.2625205516815186,0.3952130973339081,0.11824434995651245,-0.6732470989227295,5.175083
0.07900865375995636,10.29746150970459,1.98958158493042,0.3526025116443634,0.2407497614622116,-0.7712514400482178,5.180082
-0.3423708379268646,9.986215591430664,1.659181833267212,0.33555829524993896,0.32277512550354004,-0.8191883563995361,5.185089
-0.7038952708244324,9.639056205749512,1.3455413579940796,0.36432042717933655,0.3579288423061371,-0.8245146870613098,5.190083
-0.8906430602073669,9.129091262817383,1.0319008827209473,0.41012680530548096,0.3419498801231384,-0.7808388471603394,5.195081
-1.0127472877502441,8.808267593383789,0.7086837291717529,0.5070658922195435,0.2886866629123688,-0.6881608366966248,5.200081
-1.0678139925003052,8.75080680847168,0.5051765441894531,0.6189186573028564,0.22583605349063873,-0.5720469951629639,5.205085
-0.9696516990661621,8.769960403442383,0.3878606855869293,0.6647250056266785,0.17789915204048157,-0.44634580612182617,5.210085
-0.7829039692878723,8.865729331970215,0.42616790533065796,0.6466155052185059,0.15659387409687042,-0.3067961633205414,5.215089
-0.6200982332229614,9.138668060302734,0.4668693244457245,0.5624596476554871,0.16085493564605713,-0.1619201898574829,5.22009
-0.42616790533065796,9.311050415039062,0.4884171485900879,0.5038700699806213,0.18855179846286774,-0.055393751710653305,5.225086
-0.15322890877723694,9.459490776062012,0.45250412821769714,0.44315001368522644,0.2322276383638382,0.014913702383637428,5.230089
0.12689268589019775,9.725247383117676,0.3734954595565796,0.35579830408096313,0.28549087047576904,0.05432848632335663,5.235085
0.38067805767059326,9.95748519897461,0.29209262132644653,0.3238403797149658,0.3387540876865387,0.049002163112163544,5.240089
0.5722141861915588,10.053253173828125,0.1867477297782898,0.3153182566165924,0.3898867666721344,0.0,5.245086
0.7661445140838623,10.146626472473145,0.05267243832349777,0.28975191712379456,0.445280522108078,-0.08628641813993454,5.250093
0.9744400978088379,10.165780067443848,-0.016759412363171577,0.2684466242790222,0.500674307346344,-0.1949433833360672,5.255092
1.0749965906143188,10.232817649841309,-0.12689268589019775,0.23009711503982544,0.555002748966217,-0.30466562509536743,5.260088
1.0678139925003052,10.280701637268066,-0.31124621629714966,0.16831177473068237,0.5976133346557617,-0.407996267080307,5.265087
0.9169792532920837,10.259154319763184,-0.47884035110473633,0.08948221057653427,0.6199839115142822,-0.5028048157691956,5.27009
0.7445967197418213,10.129867553710938,-0.6655880808830261,0.019174760207533836,0.6029396653175354,-0.5784385800361633,5.275093
0.4668693244457245,10.146626472473145,-0.8595184087753296,-0.019174760207533836,0.5294364094734192,-0.6189186573028564,5.280091
0.07900865375995636,10.295066833496094,-0.9361328482627869,-0.034088462591171265,0.40053942799568176,-0.6402239203453064,5.285098
-0.31842881441116333,10.335768699645996,-0.9888052940368652,-0.014913702383637428,0.22583605349063873,-0.6636597514152527,5.290092
-0.5889736413955688,10.168174743652344,-0.9433154463768005,0.03621898964047432,0.02876213937997818,-0.6849650144577026,5.29509
-0.8523358106613159,10.137049674987793,-0.7637503147125244,0.08628641813993454,-0.16937704384326935,-0.6828345060348511,5.300092
-1.1803414821624756,10.1753568649292,-0.4405331015586853,0.11717908829450607,-0.34621092677116394,-0.6647250056266785,5.305095
-1.4700398445129395,10.11789608001709,-0.031124621629714966,0.1619201898574829,-0.48043426871299744,-0.6487460136413574,5.310093
-1.6711528301239014,9.99339771270752,0.40701428055763245,0.1768338978290558,-0.5581985712051392,-0.612527072429657,5.315099
-1.8148049116134644,9.854534149169922,0.828393816947937,0.11504855751991272,-0.5656554102897644,-0.5539374947547913,5.320098
-1.922544002532959,9.732429504394531,1.2306196689605713,0.007456851191818714,-0.5028048157691956,-0.4772384762763977,5.325095
-1.9823989868164062,9.552865028381348,1.601720929145813,-0.13209278881549835,-0.39095205068588257,-0.38775625824928284,5.330095
-1.9488801956176758,9.35654067993164,1.9393033981323242,-0.2748382091522217,-0.250337153673172,-0.29401299357414246,5.335093
-1.9704279899597168,9.409213066101074,2.248155355453491,-0.4026699662208557,-0.10013485699892044,-0.18855179846286774,5.340098
-1.9321208000183105,9.361329078674316,2.425326347351074,-0.5145227313041687,0.027696875855326653,-0.08415588736534119,5.345094
-1.7980455160140991,9.17936897277832,2.559401512145996,-0.5486111640930176,0.12463593482971191,0.02130528911948204,5.350102
-1.6304513216018677,8.89685344696045,2.676717519760132,-0.5155879855155945,0.18642127513885498,0.12889699637889862,5.355101
-1.3048399686813354,8.578424453735352,2.7006595134735107,-0.4314320981502533,0.21198761463165283,0.24394555389881134,5.360099
-0.9457096457481384,8.315062522888184,2.676717519760132,-0.2972087860107422,0.21198761463165283,0.3675162196159363,5.365096
-0.6177040338516235,8.226476669311523,2.6671407222747803,-0.14594122767448425,0.1906823366880417,0.4974784851074219,5.370099
-0.3016694188117981,8.35336971282959,2.6384103298187256,0.011717909015715122,0.15446333587169647,0.6231796741485596,5.375101
0.11252748221158981,8.633491516113281,2.6455929279327393,0.19387812912464142,0.12250541150569916,0.7265103459358215,5.3801
0.45010992884635925,9.208099365234375,2.655169725418091,0.36432042717933655,0.1065264418721199,0.7872304320335388,5.385107
0.7469909191131592,9.758766174316406,2.580949544906616,0.5070658922195435,0.11291802674531937,0.7829693555831909,5.390101
0.9816226959228516,10.17296314239502,2.3918075561523438,0.6679207682609558,0.15020228922367096,0.7158576846122742,5.395099
1.1444283723831177,10.524910926818848,2.2385785579681396,0.7797735333442688,0.2173139452934265,0.5944175720214844,5.400099
1.0821791887283325,10.831368446350098,1.9752163887023926,0.8170577883720398,0.3206445872783661,0.4410194754600525,5.405104
0.9385270476341248,10.881647109985352,1.6735470294952393,0.8085356950759888,0.4538026452064514,0.24714134633541107,5.410102
0.7924807667732239,10.697293281555176,1.4053963422775269,0.8021441102027893,0.5976133346557617,0.03195793181657791,5.415108
0.608127236366272,10.522516250610352,1.1827356815338135,0.7499461770057678,0.7435545921325684,-0.1619201898574829,5.420107
0.3711012601852417,10.340557098388672,0.9816226959228516,0.6231796741485596,0.8831042051315308,-0.3206445872783661,5.425104
0.08140286058187485,10.034099578857422,0.7398083209991455,0.5145227313041687,0.9970874786376953,-0.4591289758682251,5.430102
-0.13168109953403473,9.6989107131958,0.5482721924781799,0.4591289758682251,1.0737864971160889,-0.5645901560783386,5.435102
-0.3711012601852417,9.418789863586426,0.3280056416988373,0.4165183901786804,1.1025487184524536,-0.6231796741485596,5.440109
-0.5626373887062073,9.153033256530762,0.14604631066322327,0.42930155992507935,1.0780476331710815,-0.6370280981063843,5.445103
-0.7493851184844971,8.944737434387207,-0.1149216815829277,0.5209143161773682,1.0024138689041138,-0.6167880892753601,5.450112
-0.9026140570640564,8.757989883422852,-0.4884171485900879,0.6593986749649048,0.8745821118354797,-0.5656554102897644,5.45511
-0.9409212470054626,8.60236644744873,-0.828393816947937,0.8127967715263367,0.7094660997390747,-0.4964132308959961,5.460106
-0.9888052940368652,8.588001251220703,-1.1468225717544556,0.9331716299057007,0.5262406468391418,-0.41012680530548096,5.465105
-1.0534487962722778,8.698134422302246,-1.3072341680526733,0.9981527924537659,0.3536677956581116,-0.32703617215156555,5.470108
-1.0630255937576294,8.880094528198242,-1.3982137441635132,1.0205233097076416,0.20133498311042786,-0.260989785194397,5.47511
-1.0678139925003052,9.10993766784668,-1.4197616577148438,1.01093590259552,0.0788295641541481,-0.21411815285682678,5.480109
-1.115697979927063,9.306262016296387,-1.3527239561080933,0.9768474698066711,-0.01065264455974102,-0.18002969026565552,5.485116
-1.1444283723831177,9.476250648498535,-1.3000515699386597,0.9161273837089539,-0.07989483326673508,-0.15020228922367096,5.490109
-1.1683704853057861,9.59835433959961,-1.2306196689605713,0.8085356950759888,-0.12250541150569916,-0.12783172726631165,5.495108
-1.2545616626739502,9.703699111938477,-1.2330138683319092,0.6615291833877563,-0.13528858125209808,-0.11504855751991272,5.500108
-1.338358759880066,9.619902610778809,-1.2665326595306396,0.509196400642395,-0.13209278881549835,-0.1065264418721199,5.505114
-1.4389152526855469,9.524134635925293,-1.2401964664459229,0.3792341351509094,-0.12144014239311218,-0.09906959533691406,5.510113
-1.50355863571167,9.30386734008789,-1.173158884048462,0.2929477095603943,-0.11291802674531937,-0.092678003013134,5.515117
-1.4628572463989258,9.107542991638184,-1.0606313943862915,0.23329290747642517,-0.11078750342130661,-0.06604639440774918,5.520116
-1.3934253454208374,9.066842079162598,-0.9026140570640564,0.185356006026268,-0.11185276508331299,-0.02556634694337845,5.525113
-1.2449848651885986,9.093177795410156,-0.7206547260284424,0.14594122767448425,-0.1022653877735138,0.022370552644133568,5.530111
-1.0654197931289673,9.150638580322266,-0.49559974670410156,0.12144014239311218,-0.07137271761894226,0.06285060197114944,5.535111
-0.8738836050033569,9.35893440246582,-0.304063618183136,0.08522115647792816,-0.026631610468029976,0.09693906456232071,5.540117
-0.7589619159698486,9.639056205749512,-0.12928688526153564,0.04048004746437073,0.02876213937997818,0.1203748807311058,5.545113
-0.6105214357376099,9.821015357971191,-0.004788403399288654,-0.01065264455974102,0.092678003013134,0.12889699637889862,5.550121
-0.4644751250743866,9.93354320526123,0.004788403399288654,-0.03621898964047432,0.15446333587169647,0.12783172726631165,5.555119
-0.2992752194404602,9.962273597717285,0.014365210197865963,-0.024501081556081772,0.21198761463165283,0.10865697264671326,5.560115
-0.17956513166427612,9.979032516479492,-0.07422025501728058,-0.052197955548763275,0.2695119082927704,0.08202536404132843,5.565114
-0.16998831927776337,10.070012092590332,-0.2801215946674347,-0.10013485699892044,0.33129724860191345,0.044741105288267136,5.570117
-0.3016694188117981,10.127472877502441,-0.47644615173339844,-0.12250541150569916,0.3813646733760834,-0.004261057823896408,5.575119
-0.4572925269603729,10.04846477508545,-0.7326257228851318,-0.17044231295585632,0.41864892840385437,-0.05432848632335663,5.580117
-0.6943184733390808,9.95748519897461,-0.9792284965515137,-0.2183792144060135,0.44208472967147827,-0.10333064943552017,5.585125
-0.9792284965515137,9.80904483795166,-1.192312479019165,-0.2652508318424225,0.45273739099502563,-0.14487595856189728,5.590119
-1.335964560508728,9.612719535827637,-1.2737152576446533,-0.3291667103767395,0.4506068527698517,-0.17044231295585632,5.595117
-1.6065093278884888,9.397241592407227,-1.2856862545013428,-0.41012680530548096,0.4324973523616791,-0.17257283627986908,5.600119
-1.7836803197860718,9.150638580322266,-1.2330138683319092,-0.48576056957244873,0.39095205068588257,-0.14594122767448425,5.605123
-1.8579005002975464,8.949525833129883,-1.0438719987869263,-0.5155879855155945,0.33129724860191345,-0.08309062570333481,5.610119
-1.8986018896102905,8.899248123168945,-0.7829039692878723,-0.5613943338394165,0.260989785194397,0.02130528911948204,5.615126
-1.7884687185287476,8.87051773071289,-0.49320554733276367,-0.605070173740387,0.18748654425144196,0.14594122767448425,5.620125
-1.599326729774475,8.932766914367676,-0.19393034279346466,-0.621049165725708,0.11504855751991272,0.287621408700943,5.625122
-1.3527239561080933,9.071630477905273,0.10055647045373917,-0.6040049195289612,0.05752427875995636,0.42077943682670593,5.630121
-1.0295066833496094,9.337387084960938,0.42856210470199585,-0.5358279943466187,0.03302319720387459,0.5336974859237671,5.63512
-0.8331822156906128,9.770736694335938,0.6967126727104187,-0.5081311464309692,0.04367583990097046,0.6178533434867859,5.640125
-0.727837324142456,10.216058731079102,0.8427590131759644,-0.48043426871299744,0.08309062570333481,0.6615291833877563,5.645121
-0.5937620401382446,10.457873344421387,0.9911994934082031,-0.4133225977420807,0.14168016612529755,0.6679207682609558,5.650131
-0.47644615173339844,10.563218116760254,1.0678139925003052,-0.3302319645881653,0.20985709130764008,0.6487460136413574,5.655127
-0.33758243918418884,10.575188636779785,1.0797849893569946,-0.2183792144060135,0.287621408700943,0.6093312501907349,5.660125
-0.16998831927776337,10.438719749450684,1.0342950820922852,-0.10333064943552017,0.37390780448913574,0.5560680031776428,5.665123
0.035913024097681046,10.304644584655762,0.9457096457481384,-0.004261057823896408,0.4506068527698517,0.5113269090652466,5.670125
0.19393034279346466,10.177751541137695,0.8355764150619507,0.10546118021011353,0.5187837481498718,0.46552056074142456,5.675128
0.2513911724090576,10.199298858642578,0.689530074596405,0.22050973773002625,0.5795038342475891,0.41971418261528015,5.680127
0.4596867263317108,9.945513725280762,0.3878606855869293,0.2833603322505951,0.6242449283599854,0.3664509654045105,5.685133
0.5961562395095825,9.904812812805176,0.12449848651885986,0.3515372574329376,0.6593986749649048,0.32597091794013977,5.690129
0.6440402865409851,9.971850395202637,-0.07900865375995636,0.3898867666721344,0.6817692518234253,0.287621408700943,5.695126
0.6344634294509888,10.038887977600098,-0.2992752194404602,0.4069310128688812,0.6881608366966248,0.23968449234962463,5.700126
0.5841852426528931,10.204087257385254,-0.5267243981361389,0.42930155992507935,0.6732470989227295,0.185356006026268,5.705132
0.5722141861915588,10.254365921020508,-0.6919242739677429,0.4591289758682251,0.6348975896835327,0.1161138191819191,5.710129
0.4836287498474121,10.33098030090332,-0.8379706144332886,0.5038700699806213,0.5816344022750854,0.041545312851667404,5.715136
0.395043283700943,10.302249908447266,-1.039083480834961,0.5635249018669128,0.5273059010505676,-0.04261057823896408,5.720138
0.3423708379268646,10.122684478759766,-1.192312479019165,0.6221144199371338,0.48043426871299744,-0.1203748807311058,5.725131
0.14365209639072418,10.199298858642578,-1.3862427473068237,0.6466155052185059,0.42930155992507935,-0.18748654425144196,5.730129
-0.038307227194309235,10.17296314239502,-1.5514427423477173,0.6934871673583984,0.3845604658126831,-0.25672873854637146,5.735129
-0.26096799969673157,10.180145263671875,-1.7118542194366455,0.7115966081619263,0.3483414649963379,-0.31851404905319214,5.740134
-0.48602294921875,10.194510459899902,-1.941697597503662,0.6732470989227295,0.3153182566165924,-0.3653857111930847,5.74513
-0.6919242739677429,10.017339706420898,-2.231395959854126,0.6476807594299316,0.28442561626434326,-0.3984088897705078,5.75014
-0.8978256583213806,9.77791976928711,-2.4803929328918457,0.6082659959793091,0.2407497614622116,-0.41012680530548096,5.755137
-1.1228805780410767,9.581595420837402,-2.7269957065582275,0.546480655670166,0.17789915204048157,-0.3898867666721344,5.760135
-1.2737152576446533,9.378087997436523,-2.9472622871398926,0.48895636200904846,0.09906959533691406,-0.34940671920776367,5.765132
-1.4269442558288574,9.318233489990234,-3.1220390796661377,0.43356263637542725,0.009587380103766918,-0.2886866629123688,5.770134
-1.5418659448623657,9.397241592407227,-3.155557870864868,0.38669097423553467,-0.08096009492874146,-0.22370553016662598,5.775137
-1.5897499322891235,9.514557838439941,-3.0789434909820557,0.33555829524993896,-0.16831177473068237,-0.16618125140666962,5.780137
-1.6184803247451782,9.710882186889648,-2.9041666984558105,0.27590349316596985,-0.24288028478622437,-0.11504855751991272,5.785143
-1.5466543436050415,9.914389610290527,-2.671929121017456,0.2045307755470276,-0.2972087860107422,-0.06285060197114944,5.790136
-1.4293384552001953,9.981427192687988,-2.449268341064453,0.11930961906909943,-0.3291667103767395,-0.01810949482023716,5.795135
-1.2952631711959839,9.96945571899414,-2.2194249629974365,0.05645901337265968,-0.33662354946136475,0.023435818031430244,5.800135
-1.173158884048462,9.95748519897461,-2.049436569213867,-0.008522115647792816,-0.3238403797149658,0.05326322093605995,5.805141
-1.0103530883789062,9.909601211547852,-1.9632453918457031,-0.06178533658385277,-0.296143501996994,0.07456851005554199,5.81014
-0.8020575642585754,9.813833236694336,-1.9177556037902832,-0.09587379544973373,-0.2737729549407959,0.08948221057653427,5.815145
-0.7182605266571045,9.914389610290527,-1.8531121015548706,-0.10120011866092682,-0.2652508318424225,0.1022653877735138,5.820143
-0.6320692300796509,9.99100399017334,-1.8291701078414917,-0.09374327212572098,-0.27164241671562195,0.10333064943552017,5.82514
-0.5770025849342346,10.06043529510498,-1.8483237028121948,-0.06391586363315582,-0.2918824553489685,0.08415588736534119,5.830138
-0.5937620401382446,10.261548042297363,-1.8483237028121948,-0.023435818031430244,-0.32170987129211426,0.05965480953454971,5.835138
-0.6153098344802856,10.453084945678711,-1.8195933103561401,0.002130528911948204,-0.35047200322151184,0.023435818031430244,5.840143
-0.6919242739677429,10.520122528076172,-1.7118542194366455,0.019174760207533836,-0.36858150362968445,-0.026631610468029976,5.84514
-0.7948749661445618,10.488997459411621,-1.625662922859192,0.008522115647792816,-0.38349518179893494,-0.08202536404132843,5.85015
-0.9145850539207458,10.431536674499512,-1.4963760375976562,0.01810949482023716,-0.407996267080307,-0.13102751970291138,5.855146
-1.1085153818130493,10.400412559509277,-1.2976573705673218,0.06178533658385277,-0.44741106033325195,-0.16511598229408264,5.860142
-1.2641384601593018,10.323798179626465,-1.0295066833496094,0.14700649678707123,-0.5081311464309692,-0.18855179846286774,5.865141
-1.3527239561080933,10.251971244812012,-0.689530074596405,0.28016453981399536,-0.5816344022750854,-0.20133498311042786,5.870144
-1.455674648284912,10.225635528564453,-0.35913026332855225,0.45699843764305115,-0.6434197425842285,-0.20559602975845337,5.875148
-1.5203180313110352,10.17296314239502,-0.05027823522686958,0.6657902598381042,-0.6775081753730774,-0.21092236042022705,5.880144
-1.5131354331970215,10.06043529510498,0.26336219906806946,0.8586031198501587,-0.6679207682609558,-0.21518340706825256,5.885152
-1.4077905416488647,10.002974510192871,0.5171475410461426,1.0098706483840942,-0.6018744111061096,-0.2130528837442398,5.890145
-1.2737152576446533,10.091560363769531,0.6871358752250671,1.080178141593933,-0.474042683839798,-0.18002969026565552,5.895144
-1.256955862045288,10.170568466186523,0.5410895943641663,0.9470200538635254,-0.287621408700943,-0.10972223430871964,5.900147
-1.1300631761550903,9.938331604003906,0.20350714027881622,0.7914914488792419,-0.06072007119655609,-0.052197955548763275,5.905153
-0.9576807022094727,9.66299819946289,-0.19393034279346466,0.6317018270492554,0.17363810539245605,0.007456851191818714,5.910147
-0.790086567401886,9.423578262329102,-0.7924807667732239,0.407996267080307,0.3813646733760834,0.06711165606975555,5.915154
-0.6655880808830261,9.375694274902344,-1.3407529592514038,0.23116238415241241,0.5400890707969666,0.1299622654914856,5.920153
-0.5626373887062073,9.533711433410645,-1.8770540952682495,0.00532632227987051,0.6348975896835327,0.19387812912464142,5.925149
-0.4596867263317108,9.80904483795166,-2.3271639347076416,-0.22050973773002625,0.6625944972038269,0.24394555389881134,5.930149
-0.2992752194404602,10.029311180114746,-2.612074136734009,-0.4069310128688812,0.6157228350639343,0.27696874737739563,5.935147
-0.09576806426048279,10.204087257385254,-2.741360902786255,-0.5709817409515381,0.4953479468822479,0.2780340015888214,5.940152
0.0933738648891449,10.326191902160645,-2.7293899059295654,-0.6317018270492554,0.324905663728714,0.2407497614622116,5.945148
0.26815059781074524,10.378864288330078,-2.585737943649292,-0.6072007417678833,0.1203748807311058,0.17896442115306854,5.950158
0.3926490843296051,10.405200958251953,-2.274491548538208,-0.5603290796279907,-0.0884169489145279,0.1022653877735138,5.955161
0.4429273009300232,10.448296546936035,-1.843535304069519,-0.49002164602279663,-0.27057716250419617,0.013848437927663326,5.960152
0.43095630407333374,10.445901870727539,-1.41257905960083,-0.3952130973339081,-0.39627838134765625,-0.08522115647792816,5.96515
0.33518823981285095,10.445901870727539,-1.015141487121582,-0.3004045784473419,-0.46125948429107666,-0.19600865244865417,5.970152
0.08619125932455063,10.486603736877441,-0.7158663272857666,-0.22157500684261322,-0.46552056074142456,-0.3067961633205414,5.975155
-0.2106897532939911,10.376470565795898,-0.5482721924781799,-0.14168016612529755,-0.41119205951690674,-0.41438785195350647,5.980154
-0.4908113479614258,10.11550235748291,-0.49799394607543945,-0.07776430249214172,-0.3153182566165924,-0.5102616548538208,5.985177
-0.7829039692878723,9.864110946655273,-0.4692635238170624,-0.027696875855326653,-0.1906823366880417,-0.5795038342475891,5.990156
-1.173158884048462,9.622296333312988,-0.5961562395095825,-0.01065264455974102,-0.05326322093605995,-0.6189186573028564,5.995154
-1.53707754611969,9.277531623840332,-0.8379706144332886,-0.023435818031430244,0.07669904083013535,-0.629571259021759,6.000153
-1.7405846118927002,8.83939266204834,-1.1061211824417114,-0.030892668291926384,0.1896170675754547,-0.6061354875564575,6.005161
-1.8483237028121948,8.343792915344238,-1.3431471586227417,-0.0511326938867569,0.2652508318424225,-0.5358279943466187,6.010156
-1.9177556037902832,8.058882713317871,-1.5897499322891235,-0.0649811327457428,0.296143501996994,-0.41971418261528015,6.015161
-1.8962076902389526,7.9631147384643555,-1.723825216293335,-0.09800432622432709,0.296143501996994,-0.27696874737739563,6.020162
-1.8267759084701538,8.042123794555664,-1.8148049116134644,-0.15872439742088318,0.2652508318424225,-0.11398329585790634,6.025158
-1.6687586307525635,8.152256965637207,-1.8938134908676147,-0.21198761463165283,0.21518340706825256,0.049002163112163544,6.030156
-1.4700398445129395,8.305485725402832,-1.8626888990402222,-0.258859246969223,0.1619201898574829,0.185356006026268,6.035157
-1.1683704853057861,8.547300338745117,-1.6950948238372803,-0.3195793330669403,0.10759170353412628,0.2908172011375427,6.040161
-0.8834604024887085,8.959102630615234,-1.4460978507995605,-0.3760383427143097,0.049002163112163544,0.3675162196159363,6.045157
-0.646434485912323,9.351752281188965,-1.1540051698684692,-0.3845604658126831,-0.014913702383637428,0.4026699662208557,6.050167
-0.38546648621559143,9.701305389404297,-0.9002198576927185,-0.3515372574329376,-0.08096009492874146,0.39734363555908203,6.055164
-0.1173158809542656,9.983820915222168,-0.6560112833976746,-0.2865561246871948,-0.148071750998497,0.35473304986953735,6.06016
0.08379705995321274,10.158597946166992,-0.37828385829925537,-0.20666129887104034,-0.20985709130764008,0.27590349316596985,6.065159
0.26336219906806946,10.350133895874023,-0.10295066982507706,-0.11717908829450607,-0.2599245309829712,0.18216021358966827,6.070162
0.30885201692581177,10.436325073242188,0.181959331035614,-0.04048004746437073,-0.29933929443359375,0.08628641813993454,6.075164
0.26336219906806946,10.412383079528809,0.40462008118629456,0.04793689772486687,-0.3195793330669403,-0.019174760207533836,6.080163
0.181959331035614,10.271124839782715,0.6392518281936646,0.16405072808265686,-0.32703617215156555,-0.1203748807311058,6.08517
0.08140286058187485,10.141838073730469,0.811634361743927,0.2790992856025696,-0.3153182566165924,-0.20772656798362732,6.090163
0.05985504388809204,9.832986831665039,0.8044517636299133,0.3856257200241089,-0.28442561626434326,-0.27696874737739563,6.095163
0.031124621629714966,9.485827445983887,0.6560112833976746,0.47936898469924927,-0.23435817658901215,-0.32277512550354004,6.100163
-0.12928688526153564,9.248801231384277,0.4381389021873474,0.5432848334312439,-0.1672465205192566,-0.3472762107849121,6.105171
-0.3734954595565796,9.208099365234375,0.15322890877723694,0.5603290796279907,-0.09480853378772736,-0.3536677956581116,6.110167
-0.6392518281936646,9.282320022583008,-0.12449848651885986,0.5709817409515381,-0.017044231295585632,-0.35899412631988525,6.115172
-0.8164227604866028,9.320627212524414,-0.4381389021873474,0.5475459098815918,0.06711165606975555,-0.36005938053131104,6.120171
-0.9648633003234863,9.282320022583008,-0.7661445140838623,0.436758428812027,0.1533980816602707,-0.34621092677116394,6.125167
-1.0869675874710083,9.188945770263672,-1.039083480834961,0.30786141753196716,0.24288028478622437,-0.32277512550354004,6.130165
-1.1180921792984009,9.002198219299316,-1.2880805730819702,0.13635385036468506,0.32277512550354004,-0.28975191712379456,6.135166
-1.1204863786697388,8.951920509338379,-1.522712230682373,-0.02556634694337845,0.3717772960662842,-0.23755396902561188,6.14017
-1.1516109704971313,9.07641887664795,-1.6543933153152466,-0.1533980816602707,0.38242992758750916,-0.18002969026565552,6.145168
-1.1875240802764893,9.306262016296387,-1.721431016921997,-0.26738137006759644,0.3536677956581116,-0.13102751970291138,6.150177
-1.2401964664459229,9.552865028381348,-1.7046716213226318,-0.34514567255973816,0.28442561626434326,-0.09480853378772736,6.155172
-1.1420341730117798,9.605537414550781,-1.5873557329177856,-0.3802993893623352,0.18642127513885498,-0.06711165606975555,6.16017
-1.0534487962722778,9.677363395690918,-1.3455413579940796,-0.3856257200241089,0.07350324839353561,-0.04580637067556381,6.165168
-1.039083480834961,9.856928825378418,-1.0558429956436157,-0.3749730885028839,-0.03834952041506767,-0.03195793181657791,6.170171
-1.0007762908935547,9.885659217834473,-0.7086837291717529,-0.3430151343345642,-0.13209278881549835,-0.03621898964047432,6.175174
-0.950498104095459,9.837775230407715,-0.3902548849582672,-0.2918824553489685,-0.19174759089946747,-0.04687163606286049,6.180173
-0.9169792532920837,9.77791976928711,-0.08379705995321274,-0.2599245309829712,-0.20666129887104034,-0.05432848632335663,6.185179
-0.8523358106613159,9.655815124511719,0.17477671802043915,-0.2684466242790222,-0.17789915204048157,-0.05645901337265968,6.190173
-0.8092401623725891,9.50737476348877,0.3256114423274994,-0.29401299357414246,-0.11930961906909943,-0.05326322093605995,6.195172
-0.7134721279144287,9.39245319366455,0.42616790533065796,-0.3004045784473419,-0.03941478207707405,-0.04367583990097046,6.200173
-0.6248866319656372,9.330204010009766,0.5123591423034668,-0.3142530024051666,0.049002163112163544,-0.027696875855326653,6.205179
-0.507570743560791,9.229647636413574,0.5051765441894531,-0.34621092677116394,0.13848437368869781,-0.007456851191818714,6.210175
-0.40462008118629456,9.08838939666748,0.4812345504760742,-0.35473304986953735,0.20985709130764008,0.01810949482023716,6.21518
-0.2777273952960968,9.028534889221191,0.395043283700943,-0.3483414649963379,0.250337153673172,0.04580637067556381,6.22018
-0.19153612852096558,9.17697525024414,0.35913026332855225,-0.30360037088394165,0.2545982003211975,0.07030745595693588,6.225176
-0.1149216815829277,9.519346237182617,0.3687070608139038,-0.20772656798362732,0.22050973773002625,0.08628641813993454,6.230176
-0.05985504388809204,9.78989028930664,0.33279404044151306,-0.08735167980194092,0.15446333587169647,0.07456851005554199,6.235175
-0.009576806798577309,9.998186111450195,0.29209262132644653,0.08628641813993454,0.07456851005554199,0.02556634694337845,6.24018
-0.009576806798577309,10.14902114868164,0.2777273952960968,0.25353294610977173,-0.002130528911948204,-0.05006742849946022,6.245176
-0.023942016065120697,10.338163375854492,0.24420857429504395,0.4037352204322815,-0.05645901337265968,-0.148071750998497,6.250187
-0.17956513166427612,10.493785858154297,0.2059013396501541,0.5326322317123413,-0.07456851005554199,-0.26205503940582275,6.255181
-0.42856210470199585,10.591948509216309,0.06224924325942993,0.5954828262329102,-0.058589544147253036,-0.3771035969257355,6.260179
-0.6584054827690125,10.577583312988281,-0.12689268589019775,0.6135923266410828,-0.006391586735844612,-0.4868258535861969,6.265178
-0.9361328482627869,10.374075889587402,-0.40222588181495667,0.5518069863319397,0.07030745595693588,-0.5709817409515381,6.27018
-1.1659762859344482,9.916783332824707,-0.790086567401886,0.4495415985584259,0.15233281254768372,-0.6167880892753601,6.275183
-1.4101848602294922,9.423578262329102,-1.1276689767837524,0.32277512550354004,0.2183792144060135,-0.6157228350639343,6.280181
-1.6687586307525635,9.026140213012695,-1.455674648284912,0.1949433833360672,0.2460760772228241,-0.5741775035858154,6.285189
-1.8100165128707886,8.724471092224121,-1.7334020137786865,0.1022653877735138,0.22370553016662598,-0.4996090233325958,6.290183
-1.9752163887023926,8.667010307312012,-1.9273324012756348,0.01810949482023716,0.15233281254768372,-0.39201730489730835,6.295181
-2.0207061767578125,8.645462036132812,-2.0446481704711914,-0.049002163112163544,0.04580637067556381,-0.2727077007293701,6.300181
-1.9153614044189453,8.530540466308594,-2.049436569213867,-0.09693906456232071,-0.08096009492874146,-0.148071750998497,6.305187
-1.6927006244659424,8.49941635131836,-1.8818424940109253,-0.13848437368869781,-0.21092236042022705,-0.017044231295585632,6.310184
-1.3838485479354858,8.619126319885254,-1.5969325304031372,-0.16511598229408264,-0.32703617215156555,0.10120011866092682,6.31519
-1.0606313943862915,8.901641845703125,-1.2425906658172607,-0.17044231295585632,-0.4122573435306549,0.18855179846286774,6.320189
-0.7565677165985107,9.26795482635498,-0.8355764150619507,-0.17044231295585632,-0.45806369185447693,0.23116238415241241,6.325185
-0.4620809257030487,9.622296333312988,-0.4908113479614258,-0.20026971399784088,-0.45806369185447693,0.24288028478622437,6.330184
-0.1843535304069519,9.86650562286377,-0.1628057211637497,-0.2652508318424225,-0.4229099750518799,0.22903184592723846,6.335184
0.07900865375995636,10.000580787658691,0.07422025501728058,-0.33129724860191345,-0.3675162196159363,0.18429075181484222,6.340189
0.33997663855552673,10.019734382629395,0.2992752194404602,-0.3526025116443634,-0.30892667174339294,0.12463593482971191,6.345185
0.5674257874488831,10.08437728881836,0.5195417404174805,-0.3526025116443634,-0.26631611585617065,0.055393751710653305,6.350197
0.7254431247711182,10.134655952453613,0.689530074596405,-0.3004045784473419,-0.250337153673172,-0.034088462591171265,6.355191
0.8259995579719543,10.20648193359375,0.8786720037460327,-0.16405072808265686,-0.25672873854637146,-0.14700649678707123,6.360188
0.7613561153411865,10.376470565795898,1.0606313943862915,0.007456851191818714,-0.2790992856025696,-0.27590349316596985,6.365187
0.5315127968788147,10.639832496643066,1.2090718746185303,0.19281286001205444,-0.3014698326587677,-0.4175836443901062,6.37019
0.21787235140800476,10.83855152130127,1.3503297567367554,0.3898867666721344,-0.3067961633205414,-0.5784385800361633,6.375192
-0.16998831927776337,10.862493515014648,1.3766659498214722,0.592287003993988,-0.28016453981399536,-0.7605987787246704,6.38019
-0.5913678407669067,10.764330863952637,1.278503656387329,0.8096009492874146,-0.2034655064344406,-0.9683253765106201,6.385198
-1.0630255937576294,10.651803016662598,1.1085153818130493,0.9906958937644958,-0.07669904083013535,-1.1696603298187256,6.390191
-1.5729905366897583,10.369287490844727,0.8020575642585754,1.0695254802703857,0.09374327212572098,-1.3347762823104858,6.39519
-1.9177556037902832,9.780313491821289,0.3663128614425659,1.0705907344818115,0.2918824553489685,-1.4402375221252441,6.40019
-2.322375535964966,9.066842079162598,-0.15801730751991272,0.9789780378341675,0.4953479468822479,-1.4636733531951904,6.405197
-2.6455929279327393,8.29830265045166,-0.790086567401886,0.8554073572158813,0.6817692518234253,-1.4274543523788452,6.410195
-2.8586769104003906,7.568071365356445,-1.4748282432556152,0.7446198463439941,0.8436894416809082,-1.346494197845459,6.415198
-3.0765492916107178,7.086836814880371,-2.1092917919158936,0.5645901560783386,0.965129554271698,-1.2154667377471924,6.420198
-3.224989652633667,6.864176273345947,-2.6671407222747803,0.33236250281333923,1.0343717336654663,-1.0492854118347168,6.425195
-3.24414324760437,6.864176273345947,-3.1100680828094482,0.07243797928094864,1.02584969997406,-0.8330367803573608,6.430193
-3.3063924312591553,7.280767440795898,-3.442862033843994,-0.1768338978290558,0.9299758672714233,-0.5603290796279907,6.435193
-3.315969467163086,7.85537576675415,-3.5482068061828613,-0.4090615510940552,0.7424892783164978,-0.29507824778556824,6.440199
-3.0885202884674072,8.269572257995605,-3.5386300086975098,-0.5656554102897644,0.4814995229244232,-0.055393751710653305,6.445194
-2.760514497756958,8.631096839904785,-3.270479440689087,-0.5997438430786133,0.1768338978290558,0.1576591283082962,6.450205
-2.279279947280884,8.995016098022461,-2.7700912952423096,-0.6231796741485596,-0.14274543523788452,0.33129724860191345,6.455202
-1.845929503440857,9.509769439697266,-2.188300371170044,-0.6466155052185059,-0.4314320981502533,0.4548678994178772,6.460197
-1.4939818382263184,10.125079154968262,-1.4460978507995605,-0.5763080716133118,-0.6562029123306274,0.5166532397270203,6.465196
-1.1180921792984009,10.673351287841797,-0.6584054827690125,-0.5411543250083923,-0.8010788559913635,0.500674307346344,6.4702
-0.8810662031173706,11.252747535705566,0.033518824726343155,-0.5624596476554871,-0.8511462807655334,0.42930155992507935,6.475201
-0.8331822156906128,11.70046329498291,0.6416460275650024,-0.4974784851074219,-0.8106662034988403,0.30360037088394165,6.480199
-0.7422025203704834,11.659762382507324,1.115697979927063,-0.43356263637542725,-0.6902913451194763,0.12889699637889862,6.485207
-0.7948749661445618,11.566388130187988,1.338358759880066,-0.3941478431224823,-0.5166532397270203,-0.04580637067556381,6.490201
-0.9576807022094727,11.334151268005371,1.3503297567367554,-0.3163835406303406,-0.3121224641799927,-0.21411815285682678,6.495199
-1.158793568611145,10.769119262695312,1.1324573755264282,-0.23009711503982544,-0.09800432622432709,-0.3611246347427368,6.500201
-1.3694833517074585,10.110713958740234,0.6919242739677429,-0.17896442115306854,0.09800432622432709,-0.47084689140319824,6.505207
-1.6184803247451782,9.643844604492188,0.16519992053508759,-0.12250541150569916,0.26205503940582275,-0.5262406468391418,6.510202
-2.054224967956543,9.469067573547363,-0.40462008118629456,-0.07989483326673508,0.3802993893623352,-0.5368932485580444,6.51521
-2.6216509342193604,9.478644371032715,-1.0007762908935547,-0.05326322093605995,0.4442152678966522,-0.5230448246002197,6.520211
-3.134010076522827,9.44991397857666,-1.5682021379470825,-0.019174760207533836,0.4644552767276764,-0.49321743845939636,6.525204
-3.5051112174987793,9.301473617553711,-2.049436569213867,-0.05326322093605995,0.445280522108078,-0.43782368302345276,6.530204
-3.7397429943084717,9.071630477905273,-2.5019407272338867,-0.15446333587169647,0.39734363555908203,-0.34940671920776367,6.535203
-3.825934410095215,8.815450668334961,-2.7964274883270264,-0.28122982382774353,0.32703617215156555,-0.23009711503982544,6.540208
-3.8091750144958496,8.65743350982666,-2.911349296569824,-0.4399542212486267,0.2364886999130249,-0.08096009492874146,6.545203
-3.7924153804779053,8.69334602355957,-2.87064790725708,-0.6242449283599854,0.12250541150569916,0.08628641813993454,6.550215
-3.7038300037384033,8.918401718139648,-2.647987127304077,-0.8000136017799377,-0.01810949482023716,0.24714134633541107,6.555209
-3.5242648124694824,9.265560150146484,-2.2002713680267334,-0.927845299243927,-0.17789915204048157,0.39201730489730835,6.560208
-3.339911460876465,9.682151794433594,-1.6424223184585571,-1.0002832412719727,-0.3472762107849121,0.5123921632766724,6.565205
-3.1052796840667725,10.034099578857422,-0.9959878921508789,-1.043959140777588,-0.5123921632766724,0.6061354875564575,6.57021
-2.7461493015289307,10.153809547424316,-0.2992752194404602,-1.0460896492004395,-0.6625944972038269,0.6732470989227295,6.57521
-2.293645143508911,10.211270332336426,0.40462008118629456,-0.9789780378341675,-0.7850998640060425,0.7222492694854736,6.580207
-1.7501614093780518,10.158597946166992,1.094150185585022,-0.8649947047233582,-0.8703210353851318,0.7552725076675415,6.585216
-1.2497732639312744,10.199298858642578,1.656787633895874,-0.7222492694854736,-0.9033442139625549,0.7723166942596436,6.590211
-0.8307880163192749,10.381258964538574,2.190694570541382,-0.575242817401886,-0.8799084424972534,0.761664092540741,6.595208
-0.5650315880775452,10.757147789001465,2.5929205417633057,-0.4538026452064514,-0.8085356950759888,0.7275756001472473,6.600209
-0.45010992884635925,11.061211585998535,2.806004285812378,-0.32277512550354004,-0.704139769077301,0.6625944972038269,6.605216
-0.38067805767059326,10.984597206115723,2.8227639198303223,-0.1533980816602707,-0.5773733258247375,0.5518069863319397,6.610211
-0.2849099934101105,10.690110206604004,2.5977089405059814,0.04048004746437073,-0.4303668141365051,0.4133225977420807,6.615219
